Trial_ID,Step,Stimulus,Response,ResponseTime,Duration,CorrectAnswer,Type
1,Fixation,+,,,0.504140833276324,,
1,Display Faces,enlarged_images/A/m4n.bmp / enlarged_images/A/m4t.bmp,,,0.509016124997288,[,mNTi
1,Display Faces,enlarged_images/A/m4n.bmp / enlarged_images/A/m4t.bmp,,,1.0031961667118594,[,mNTi
1,ITI,ITI,,,0.4775547083700076,,
1,Fixation,+,,,2.5038585416041315,,
2,Fixation,+,,,0.504163583391346,,
2,Display Faces,enlarged_images/A/f3n.bmp / enlarged_images/A/f3n.bmp,,,0.5045279583428055,[,fNTc
2,Display Faces,enlarged_images/A/f3n.bmp / enlarged_images/A/f3n.bmp,,,1.003400125016924,[,fNTc
2,ITI,ITI,,,0.45217070827493444,,
2,Fixation,+,,,2.50279279157985,,
3,Fixation,+,,,0.5046357500250451,,
3,Display Faces,enlarged_images/A/m3n.bmp / enlarged_images/A/m3n.bmp,,,0.504032916680444,[,mNN
3,Display Faces,enlarged_images/A/m3n.bmp / enlarged_images/A/m3n.bmp,,,1.0031686250003986,[,mNN
3,ITI,ITI,,,0.2772372500039637,,
3,Fixation,+,,,2.5024862916907296,,
4,Fixation,+,,,0.5043488750234246,,
4,Display Faces,enlarged_images/A/f4n.bmp / enlarged_images/A/f4n.bmp,,,0.5042956665856764,[,fNN
4,Display Faces,enlarged_images/A/f4n.bmp / enlarged_images/A/f4n.bmp,,,1.0033680000342429,[,fNN
4,ITI,ITI,,,0.5274130416219123,,
4,Fixation,+,,,2.5029615833773278,,
5,Fixation,+,,,0.504423875012435,,
5,Display Faces,enlarged_images/A/f5n.bmp / enlarged_images/A/f5n.bmp,,,0.5044726667110808,[,fNTc
5,Display Faces,enlarged_images/A/f5n.bmp / enlarged_images/A/f5n.bmp,,,1.0031337082618847,[,fNTc
5,ITI,ITI,,,0.7519297499675304,,
5,Fixation,+,,,2.502681375015527,,
6,Fixation,+,,,0.5038710415828973,,
6,Display Faces,enlarged_images/A/f1t.bmp / enlarged_images/A/f1n.bmp,,,0.506154625036288,[,fNTi
6,Display Faces,enlarged_images/A/f1t.bmp / enlarged_images/A/f1n.bmp,,,1.0033880000119098,[,fNTi
6,ITI,ITI,,,0.3521173750050366,,
6,Fixation,+,,,2.502258541644551,,
7,Fixation,+,,,0.5030624166829512,,
7,Display Faces,enlarged_images/A/f4n.bmp / enlarged_images/A/f4n.bmp,,,0.5041092917090282,[,mNTc
7,Display Faces,enlarged_images/A/f4n.bmp / enlarged_images/A/f4n.bmp,,,1.0045739999623038,[,mNTc
7,ITI,ITI,,,0.7520254167029634,,
7,Fixation,+,,,2.502766916702967,,
8,Fixation,+,,,0.5070579582825303,,
8,Display Faces,enlarged_images/A/m1t.bmp / enlarged_images/A/m1n.bmp,,,0.5052358333487064,[,mNTi
8,Display Faces,enlarged_images/A/m1t.bmp / enlarged_images/A/m1n.bmp,,,1.0033307917183265,[,mNTi
8,ITI,ITI,,,0.7019701667013578,,
8,Fixation,+,,,2.5023238750291057,,
9,Fixation,+,,,0.5044797083828598,,
9,Display Faces,enlarged_images/A/m1n.bmp / enlarged_images/A/m1n.bmp,,,0.505078541697003,[,mNN
9,Display Faces,enlarged_images/A/m1n.bmp / enlarged_images/A/m1n.bmp,,,1.003001624951139,[,mNN
9,ITI,ITI,,,0.6520965833915398,,
9,Fixation,+,,,2.5035462916712277,,
10,Fixation,+,,,0.5042017500381917,,
10,Display Faces,enlarged_images/A/f3n.bmp / enlarged_images/A/f3n.bmp,,,0.5039980834117159,[,fNN
10,Display Faces,enlarged_images/A/f3n.bmp / enlarged_images/A/f3n.bmp,,,1.0033404999994673,[,fNN
10,ITI,ITI,,,0.402041083376389,,
10,Fixation,+,,,2.5022905417135917,,
11,Fixation,+,,,0.504420708399266,,
11,Display Faces,enlarged_images/A/f4n.bmp / enlarged_images/A/f4n.bmp,,,0.5039341249503195,[,fNN
11,Display Faces,enlarged_images/A/f4n.bmp / enlarged_images/A/f4n.bmp,,,1.0031250417232513,[,fNN
11,ITI,ITI,,,0.6272753333905712,,
11,Fixation,+,,,2.5022294583613984,,
12,Fixation,+,,,0.5034892082912847,,
12,Display Faces,enlarged_images/A/m2n.bmp / enlarged_images/A/m2n.bmp,,,0.5040087083471008,[,mNN
12,Display Faces,enlarged_images/A/m2n.bmp / enlarged_images/A/m2n.bmp,,,1.0038884583045729,[,mNN
12,ITI,ITI,,,0.45201449998421595,,
12,Fixation,+,,,2.5022130833240226,,
13,Fixation,+,,,0.504532583290711,,
13,Display Faces,enlarged_images/A/f4n.bmp / enlarged_images/A/f4t.bmp,,,0.5042765833204612,[,fNTi
13,Display Faces,enlarged_images/A/f4n.bmp / enlarged_images/A/f4t.bmp,,,1.0030741666560061,[,fNTi
13,ITI,ITI,,,0.32735879166284576,,
13,Fixation,+,,,2.502246208314318,,
14,Fixation,+,,,0.5040712499758229,,
14,Display Faces,enlarged_images/A/f5n.bmp / enlarged_images/A/f5n.bmp,,,0.5040525833028369,[,fNN
14,Display Faces,enlarged_images/A/f5n.bmp / enlarged_images/A/f5n.bmp,,,1.003553958318662,[,fNN
14,ITI,ITI,,,0.42699108336819336,,
14,Fixation,+,,,2.5024116249987856,,
15,Fixation,+,,,0.5043318333337083,,
15,Display Faces,enlarged_images/A/m5t.bmp / enlarged_images/A/m5n.bmp,,,0.5072534166974947,[,mNTi
15,Display Faces,enlarged_images/A/m5t.bmp / enlarged_images/A/m5n.bmp,,,1.003101250040345,[,mNTi
15,ITI,ITI,,,0.5280137083027512,,
15,Fixation,+,,,2.5031144583481364,,
16,Fixation,+,,,0.5043233333271928,,
16,Display Faces,enlarged_images/A/f1n.bmp / enlarged_images/A/f1n.bmp,,,0.5042157084099017,[,mNTc
16,Display Faces,enlarged_images/A/f1n.bmp / enlarged_images/A/f1n.bmp,,,1.0033294582972303,[,mNTc
16,ITI,ITI,,,0.7272481250111014,,
16,Fixation,+,,,2.5023452917230316,,
17,Fixation,+,,,0.5042264583753422,,
17,Display Faces,enlarged_images/A/f2n.bmp / enlarged_images/A/f2t.bmp,,,0.5058269166620448,[,fNTi
17,Display Faces,enlarged_images/A/f2n.bmp / enlarged_images/A/f2t.bmp,,,1.0030526666669175,[,fNTi
17,ITI,ITI,,,0.3526292499736883,,
17,Fixation,+,,,2.502873458317481,,
18,Fixation,+,,,0.5044547916040756,,
18,Display Faces,enlarged_images/A/f3n.bmp / enlarged_images/A/f3n.bmp,,,0.5037295416695997,[,mNTc
18,Display Faces,enlarged_images/A/f3n.bmp / enlarged_images/A/f3n.bmp,,,1.0032774166902527,[,mNTc
18,ITI,ITI,,,0.6270084166899323,,
18,Fixation,+,,,2.502206291654147,,
19,Fixation,+,,,0.5042439166572876,,
19,Display Faces,enlarged_images/A/m5t.bmp / enlarged_images/A/m5n.bmp,,,0.5036099583376199,[,mNTi
19,Display Faces,enlarged_images/A/m5t.bmp / enlarged_images/A/m5n.bmp,,,1.0032109167077579,[,mNTi
19,ITI,ITI,,,0.4023847916396335,,
19,Fixation,+,,,2.5024297916679643,,
20,Fixation,+,,,0.5040140833007172,,
20,Display Faces,enlarged_images/A/f1n.bmp / enlarged_images/A/f1n.bmp,,,0.5037486667279154,[,fNN
20,Display Faces,enlarged_images/A/f1n.bmp / enlarged_images/A/f1n.bmp,,,1.0037677499931306,[,fNN
20,ITI,ITI,,,0.27708766667637974,,
20,Fixation,+,,,2.502451749984175,,
21,Fixation,+,,,0.5040481666801497,,
21,Display Faces,enlarged_images/A/m3n.bmp / enlarged_images/A/m3n.bmp,,,0.5041741667082533,[,mNN
21,Display Faces,enlarged_images/A/m3n.bmp / enlarged_images/A/m3n.bmp,,,1.003175541642122,[,mNN
21,ITI,ITI,,,0.6521069582668133,,
21,Fixation,+,,,2.502274625003338,,
22,Fixation,+,,,0.5042435000068508,,
22,Display Faces,enlarged_images/A/m1n.bmp / enlarged_images/A/m1t.bmp,,,0.503505791653879,[,mNTi
22,Display Faces,enlarged_images/A/m1n.bmp / enlarged_images/A/m1t.bmp,,,1.0036867083399557,[,mNTi
22,ITI,ITI,,,0.4022233749856241,,
22,Fixation,+,,,2.5026529583265074,,
23,Fixation,+,,,0.5041032916633412,,
23,Display Faces,enlarged_images/A/m5n.bmp / enlarged_images/A/m5t.bmp,,,0.5038096666685306,[,mNTi
23,Display Faces,enlarged_images/A/m5n.bmp / enlarged_images/A/m5t.bmp,,,1.0031350833596662,[,mNTi
23,ITI,ITI,,,0.27715649997117,,
23,Fixation,+,,,2.5021175832953304,,
24,Fixation,+,,,0.5042619583546184,,
24,Display Faces,enlarged_images/A/f3t.bmp / enlarged_images/A/f3n.bmp,,,0.5044319999869913,[,fNTi
24,Display Faces,enlarged_images/A/f3t.bmp / enlarged_images/A/f3n.bmp,,,1.0032495000050403,[,fNTi
24,ITI,ITI,,,0.5773246250464581,,
24,Fixation,+,,,2.5022780833533034,,
25,Fixation,+,,,0.504339000035543,,
25,Display Faces,enlarged_images/A/f1n.bmp / enlarged_images/A/f1n.bmp,,,0.5042959582642652,[,fNTc
25,Display Faces,enlarged_images/A/f1n.bmp / enlarged_images/A/f1n.bmp,,,1.0035849999985658,[,fNTc
25,ITI,ITI,,,0.727090583415702,,
25,Fixation,+,,,2.5025471249828115,,
26,Fixation,+,,,0.5040720417164266,,
26,Display Faces,enlarged_images/A/m5n.bmp / enlarged_images/A/m5n.bmp,,,0.5036274999729358,[,mNN
26,Display Faces,enlarged_images/A/m5n.bmp / enlarged_images/A/m5n.bmp,,,1.0034289166214876,[,mNN
26,ITI,ITI,,,0.2521012083743699,,
26,Fixation,+,,,2.5022437083534896,,
27,Fixation,+,,,0.5044524582917802,,
27,Display Faces,enlarged_images/A/m2t.bmp / enlarged_images/A/m2n.bmp,,,0.5061410833150148,[,mNTi
27,Display Faces,enlarged_images/A/m2t.bmp / enlarged_images/A/m2n.bmp,,,1.003030416672118,[,mNTi
27,ITI,ITI,,,0.30226125003537163,,
27,Fixation,+,,,2.50234437501058,,
28,Fixation,+,,,0.5036353749455884,,
28,Display Faces,enlarged_images/A/f1n.bmp / enlarged_images/A/f1n.bmp,,,0.5035122083500028,[,fNTc
28,Display Faces,enlarged_images/A/f1n.bmp / enlarged_images/A/f1n.bmp,,,1.0034433333203197,[,fNTc
28,ITI,ITI,,,0.5525401667109691,,
28,Fixation,+,,,2.50245787500171,,
29,Fixation,+,,,0.5026515832869336,,
29,Display Faces,enlarged_images/A/f2n.bmp / enlarged_images/A/f2n.bmp,,,0.5040857915882953,[,mNTc
29,Display Faces,enlarged_images/A/f2n.bmp / enlarged_images/A/f2n.bmp,,,1.0031711249612272,[,mNTc
29,ITI,ITI,,,0.47730745834996924,,
29,Fixation,+,,,2.5022988332784735,,
30,Fixation,+,,,0.5033909166231751,,
30,Display Faces,enlarged_images/A/f3n.bmp / enlarged_images/A/f3n.bmp,,,0.5034762917202897,[,fNTc
30,Display Faces,enlarged_images/A/f3n.bmp / enlarged_images/A/f3n.bmp,,,1.0037395416293293,[,fNTc
30,ITI,ITI,,,0.7024097082903609,,
30,Fixation,+,,,2.50319020828465,,
31,Fixation,+,,,0.5038420833298005,,
31,Display Faces,enlarged_images/A/m5n.bmp / enlarged_images/A/m5n.bmp,,,0.5040955416625366,[,mNN
31,Display Faces,enlarged_images/A/m5n.bmp / enlarged_images/A/m5n.bmp,,,1.0032545000431128,[,mNN
31,ITI,ITI,,,0.552286958321929,,
31,Fixation,+,,,2.502297875005752,,
32,Fixation,+,,,0.5040323749999516,,
32,Display Faces,enlarged_images/A/f5n.bmp / enlarged_images/A/f5n.bmp,,,0.5035318332957104,[,mNTc
32,Display Faces,enlarged_images/A/f5n.bmp / enlarged_images/A/f5n.bmp,,,1.003443541645538,[,mNTc
32,ITI,ITI,,,0.4770089999656193,,
32,Fixation,+,,,2.502253208309412,,
33,Fixation,+,,,0.5040404999745078,,
33,Display Faces,enlarged_images/A/f2n.bmp / enlarged_images/A/f2n.bmp,,,0.5041549584129825,[,fNTc
33,Display Faces,enlarged_images/A/f2n.bmp / enlarged_images/A/f2n.bmp,,,1.0033780416706577,[,fNTc
33,ITI,ITI,,,0.5775819583213888,,
33,Fixation,+,,,2.5024016666575335,,
34,Fixation,+,,,0.5034541666973382,,
34,Display Faces,enlarged_images/A/f2n.bmp / enlarged_images/A/f2n.bmp,,,0.5035977083607577,[,mNTc
34,Display Faces,enlarged_images/A/f2n.bmp / enlarged_images/A/f2n.bmp,,,1.0033382916590199,[,mNTc
34,ITI,ITI,,,0.4276142083690502,,
34,Fixation,+,,,2.5024339166120626,,
35,Fixation,+,,,0.5041253750096075,,
35,Display Faces,enlarged_images/A/f2n.bmp / enlarged_images/A/f2n.bmp,,,0.5040706666186452,[,fNTc
35,Display Faces,enlarged_images/A/f2n.bmp / enlarged_images/A/f2n.bmp,,,1.0030965416808613,[,fNTc
35,ITI,ITI,,,0.5770466249668971,,
35,Fixation,+,,,2.5025514583685435,,
36,Fixation,+,,,0.5033797083888203,,
36,Display Faces,enlarged_images/A/m3n.bmp / enlarged_images/A/m3t.bmp,,,0.5039946250035428,[,mNTi
36,Display Faces,enlarged_images/A/m3n.bmp / enlarged_images/A/m3t.bmp,,,1.0033617083681747,[,mNTi
36,ITI,ITI,,,0.4020406666677445,,
36,Fixation,+,,,2.5027276250184514,,
37,Fixation,+,,,0.5041703750030138,,
37,Display Faces,enlarged_images/A/m1n.bmp / enlarged_images/A/m1n.bmp,,,0.5040166666731238,[,mNN
37,Display Faces,enlarged_images/A/m1n.bmp / enlarged_images/A/m1n.bmp,,,1.0030307917040773,[,mNN
37,ITI,ITI,,,0.302139499981422,,
37,Fixation,+,,,2.5022545833489858,,
38,Fixation,+,,,0.5043299166718498,,
38,Display Faces,enlarged_images/A/m1t.bmp / enlarged_images/A/m1n.bmp,,,0.503665916621685,[,mNTi
38,Display Faces,enlarged_images/A/m1t.bmp / enlarged_images/A/m1n.bmp,,,1.0035554999485612,[,mNTi
38,ITI,ITI,,,0.6021372916875407,,
38,Fixation,+,,,2.502303708344698,,
39,Fixation,+,,,0.5042783333337866,,
39,Display Faces,enlarged_images/A/f5n.bmp / enlarged_images/A/f5n.bmp,,,0.5039330416475423,[,fNTc
39,Display Faces,enlarged_images/A/f5n.bmp / enlarged_images/A/f5n.bmp,,,1.0031469999812543,[,fNTc
39,ITI,ITI,,,0.6023757083457895,,
39,Fixation,+,,,2.5023509166785516,,
40,Fixation,+,,,0.5044974166667089,,
40,Display Faces,enlarged_images/A/f3n.bmp / enlarged_images/A/f3t.bmp,,,0.5038580417167395,[,fNTi
40,Display Faces,enlarged_images/A/f3n.bmp / enlarged_images/A/f3t.bmp,,,1.003185499983374,[,fNTi
40,ITI,ITI,,,0.7019991666893475,,
40,Fixation,+,,,2.502836916653905,,
41,Fixation,+,,,0.5050322500173934,,
41,Display Faces,enlarged_images/A/f5n.bmp / enlarged_images/A/f5t.bmp,,,0.5059951666626148,[,fNTi
41,Display Faces,enlarged_images/A/f5n.bmp / enlarged_images/A/f5t.bmp,,,1.0031897082808428,[,fNTi
41,ITI,ITI,,,0.627252625010442,,
41,Fixation,+,,,2.502226791693829,,
42,Fixation,+,,,0.5033911250066012,,
42,Display Faces,enlarged_images/A/f1n.bmp / enlarged_images/A/f1n.bmp,,,0.5037260000244714,[,mNTc
42,Display Faces,enlarged_images/A/f1n.bmp / enlarged_images/A/f1n.bmp,,,1.0032334999996237,[,mNTc
42,ITI,ITI,,,0.352070500026457,,
42,Fixation,+,,,2.5023882083478384,,
43,Fixation,+,,,0.5046642916859128,,
43,Display Faces,enlarged_images/A/f3n.bmp / enlarged_images/A/f3n.bmp,,,0.5037559167249128,[,fNTc
43,Display Faces,enlarged_images/A/f3n.bmp / enlarged_images/A/f3n.bmp,,,1.0033969999640249,[,fNTc
43,ITI,ITI,,,0.5274777499726042,,
43,Fixation,+,,,2.5027676665922627,,
44,Fixation,+,,,0.5040839166613296,,
44,Display Faces,enlarged_images/A/f4t.bmp / enlarged_images/A/f4n.bmp,,,0.5039711666177027,[,fNTi
44,Display Faces,enlarged_images/A/f4t.bmp / enlarged_images/A/f4n.bmp,,,1.0030797916115262,[,fNTi
44,ITI,ITI,,,0.6270588333136402,,
44,Fixation,+,,,2.5024397916859016,,
45,Fixation,+,,,0.5044263750314713,,
45,Display Faces,enlarged_images/A/m3n.bmp / enlarged_images/A/m3n.bmp,,,0.5036425417056307,[,mNN
45,Display Faces,enlarged_images/A/m3n.bmp / enlarged_images/A/m3n.bmp,,,1.0031396666890942,[,mNN
45,ITI,ITI,,,0.6273725416976959,,
45,Fixation,+,,,2.502306791720912,,
46,Fixation,+,,,0.5046079166349955,,
46,Display Faces,enlarged_images/A/m4n.bmp / enlarged_images/A/m4n.bmp,,,0.5041443749796599,[,mNN
46,Display Faces,enlarged_images/A/m4n.bmp / enlarged_images/A/m4n.bmp,,,1.0033660833141766,[,mNN
46,ITI,ITI,,,0.5270965000381693,,
46,Fixation,+,,,2.502805708325468,,
47,Fixation,+,,,0.5043739583343267,,
47,Display Faces,enlarged_images/A/m3t.bmp / enlarged_images/A/m3n.bmp,,,0.5036119584110565,[,mNTi
47,Display Faces,enlarged_images/A/m3t.bmp / enlarged_images/A/m3n.bmp,,,1.0029645000468008,[,mNTi
47,ITI,ITI,,,0.42737500002840534,,
47,Fixation,+,,,2.5023848332930356,,
48,Fixation,+,,,0.5032626666361466,,
48,Display Faces,enlarged_images/A/m4n.bmp / enlarged_images/A/m4t.bmp,,,0.5038677499978803,[,mNTi
48,Display Faces,enlarged_images/A/m4n.bmp / enlarged_images/A/m4t.bmp,,,1.0031210416927934,[,mNTi
48,ITI,ITI,,,0.5519433750305325,,
48,Fixation,+,,,2.5028753333026543,,
49,Fixation,+,,,0.5046887500211596,,
49,Display Faces,enlarged_images/A/f2t.bmp / enlarged_images/A/f2n.bmp,,,0.5037420416483656,[,fNTi
49,Display Faces,enlarged_images/A/f2t.bmp / enlarged_images/A/f2n.bmp,,,1.0037868749932386,[,fNTi
49,ITI,ITI,,,0.6774352083448321,,
49,Fixation,+,,,2.502292000048328,,
50,Fixation,+,,,0.5038943333202042,,
50,Display Faces,enlarged_images/A/f1n.bmp / enlarged_images/A/f1n.bmp,,,0.5038434999878518,[,fNN
50,Display Faces,enlarged_images/A/f1n.bmp / enlarged_images/A/f1n.bmp,,,1.0029786249506287,[,fNN
50,ITI,ITI,,,0.37705716665368527,,
50,Fixation,+,,,2.5027352499892004,,
51,Fixation,+,,,0.5060731249977835,,
51,Display Faces,enlarged_images/A/m2n.bmp / enlarged_images/A/m2n.bmp,,,0.5115292083355598,[,mNN
51,Display Faces,enlarged_images/A/m2n.bmp / enlarged_images/A/m2n.bmp,,,1.0039697916945443,[,mNN
51,ITI,ITI,,,0.7522205416462384,,
51,Fixation,+,,,2.5025674166390672,,
52,Fixation,+,,,0.5033945000031963,,
52,Display Faces,enlarged_images/A/f5n.bmp / enlarged_images/A/f5n.bmp,,,0.5037520834011957,[,mNTc
52,Display Faces,enlarged_images/A/f5n.bmp / enlarged_images/A/f5n.bmp,,,1.0029728750232607,[,mNTc
52,ITI,ITI,,,0.752651083341334,,
52,Fixation,+,,,2.5029356249724515,,
53,Fixation,+,,,0.5040045416099019,,
53,Display Faces,enlarged_images/A/f3n.bmp / enlarged_images/A/f3n.bmp,,,0.5039204583736137,[,fNN
53,Display Faces,enlarged_images/A/f3n.bmp / enlarged_images/A/f3n.bmp,,,1.0031604582909495,[,fNN
53,ITI,ITI,,,0.602117833273951,,
53,Fixation,+,,,2.5023505417048,,
54,Fixation,+,,,0.5044794583227485,,
54,Display Faces,enlarged_images/A/m2t.bmp / enlarged_images/A/m2n.bmp,,,0.5035039166687056,[,mNTi
54,Display Faces,enlarged_images/A/m2t.bmp / enlarged_images/A/m2n.bmp,,,1.0031572082662024,[,mNTi
54,ITI,ITI,,,0.7522099583293311,,
54,Fixation,+,,,2.502380333316978,,
55,Fixation,+,,,0.5044081666856073,,
55,Display Faces,enlarged_images/A/m5n.bmp / enlarged_images/A/m5n.bmp,,,0.5038332500262186,[,mNN
55,Display Faces,enlarged_images/A/m5n.bmp / enlarged_images/A/m5n.bmp,,,1.0030254166340455,[,mNN
55,ITI,ITI,,,0.577392624982167,,
55,Fixation,+,,,2.5029905416304246,,
56,Fixation,+,,,0.5043884582701139,,
56,Display Faces,enlarged_images/A/f1n.bmp / enlarged_images/A/f1t.bmp,,,0.5037882084143348,[,fNTi
56,Display Faces,enlarged_images/A/f1n.bmp / enlarged_images/A/f1t.bmp,,,1.0034015416749753,[,fNTi
56,ITI,ITI,,,0.3521091666771099,,
56,Fixation,+,,,2.5026152500067838,,
57,Fixation,+,,,0.503295500006061,,
57,Display Faces,enlarged_images/A/f3n.bmp / enlarged_images/A/f3n.bmp,,,0.5043235417106189,[,mNTc
57,Display Faces,enlarged_images/A/f3n.bmp / enlarged_images/A/f3n.bmp,,,1.0031017916626297,[,mNTc
57,ITI,ITI,,,0.3021137083414942,,
57,Fixation,+,,,2.5023985833395272,,
58,Fixation,+,,,0.5036777916830033,,
58,Display Faces,enlarged_images/A/f4n.bmp / enlarged_images/A/f4n.bmp,,,0.5034923750208691,[,fNTc
58,Display Faces,enlarged_images/A/f4n.bmp / enlarged_images/A/f4n.bmp,,,1.0030077916453592,[,fNTc
58,ITI,ITI,,,0.6521942500257865,,
58,Fixation,+,,,2.502395916671958,,
59,Fixation,+,,,0.503788625006564,,
59,Display Faces,enlarged_images/A/m1n.bmp / enlarged_images/A/m1n.bmp,,,0.5039712500292808,[,mNN
59,Display Faces,enlarged_images/A/m1n.bmp / enlarged_images/A/m1n.bmp,,,1.0033946667099372,[,mNN
59,ITI,ITI,,,0.602163124945946,,
59,Fixation,+,,,2.5025104584055953,,
60,Fixation,+,,,0.5037940833717585,,
60,Display Faces,enlarged_images/A/f5t.bmp / enlarged_images/A/f5n.bmp,,,0.5038065416156314,[,fNTi
60,Display Faces,enlarged_images/A/f5t.bmp / enlarged_images/A/f5n.bmp,,,1.003040041658096,[,fNTi
60,ITI,ITI,,,0.4022325000260025,,
60,Fixation,+,,,2.502277666644659,,
61,Fixation,+,,,0.5044650833588094,,
61,Display Faces,enlarged_images/A/f2n.bmp / enlarged_images/A/f2n.bmp,,,0.5038877084152773,[,fNN
61,Display Faces,enlarged_images/A/f2n.bmp / enlarged_images/A/f2n.bmp,,,1.0032053333707154,[,fNN
61,ITI,ITI,,,0.6019883750122972,,
61,Fixation,+,,,2.5028638332732953,,
62,Fixation,+,,,0.5043354166555218,,
62,Display Faces,enlarged_images/A/m2n.bmp / enlarged_images/A/m2t.bmp,,,0.5039202916668728,[,mNTi
62,Display Faces,enlarged_images/A/m2n.bmp / enlarged_images/A/m2t.bmp,,,1.003084750031121,[,mNTi
62,ITI,ITI,,,0.2521855417289771,,
62,Fixation,+,,,2.502244791656267,,
63,Fixation,+,,,0.5044772083056159,,
63,Display Faces,enlarged_images/A/f2n.bmp / enlarged_images/A/f2n.bmp,,,0.5037543333601207,[,fNTc
63,Display Faces,enlarged_images/A/f2n.bmp / enlarged_images/A/f2n.bmp,,,1.003158874984365,[,fNTc
63,ITI,ITI,,,0.7024345833924599,,
63,Fixation,+,,,2.502273874997627,,
64,Fixation,+,,,0.5036402083351277,,
64,Display Faces,enlarged_images/A/f5n.bmp / enlarged_images/A/f5t.bmp,,,0.5035163333523087,[,fNTi
64,Display Faces,enlarged_images/A/f5n.bmp / enlarged_images/A/f5t.bmp,,,1.0037797916447744,[,fNTi
64,ITI,ITI,,,0.25200595828937367,,
64,Fixation,+,,,2.5021976666757837,,
65,Fixation,+,,,0.5046527083031833,,
65,Display Faces,enlarged_images/A/f5n.bmp / enlarged_images/A/f5n.bmp,,,0.5043390416540205,[,fNN
65,Display Faces,enlarged_images/A/f5n.bmp / enlarged_images/A/f5n.bmp,,,1.003260916681029,[,fNN
65,ITI,ITI,,,0.6521109166205861,,
65,Fixation,+,,,2.502631083363667,,
66,Fixation,+,,,0.5035264999605715,,
66,Display Faces,enlarged_images/A/m4n.bmp / enlarged_images/A/m4n.bmp,,,0.5034496249863878,[,mNN
66,Display Faces,enlarged_images/A/m4n.bmp / enlarged_images/A/m4n.bmp,,,1.00340308342129,[,mNN
66,ITI,ITI,,,0.4521599999861792,,
66,Fixation,+,,,2.502349333371967,,
67,Fixation,+,,,0.504719250020571,,
67,Display Faces,enlarged_images/A/m2n.bmp / enlarged_images/A/m2n.bmp,,,0.5039049999904819,[,mNN
67,Display Faces,enlarged_images/A/m2n.bmp / enlarged_images/A/m2n.bmp,,,1.003072416584473,[,mNN
67,ITI,ITI,,,0.4521026666043326,,
67,Fixation,+,,,2.502737166651059,,
68,Fixation,+,,,0.5046559582697228,,
68,Display Faces,enlarged_images/A/m2n.bmp / enlarged_images/A/m2t.bmp,,,0.5035031249863096,[,mNTi
68,Display Faces,enlarged_images/A/m2n.bmp / enlarged_images/A/m2t.bmp,,,1.0038369999965653,[,mNTi
68,ITI,ITI,,,0.6526434166589752,,
68,Fixation,+,,,2.502312249969691,,
69,Fixation,+,,,0.5044769583037123,,
69,Display Faces,enlarged_images/A/f2t.bmp / enlarged_images/A/f2n.bmp,,,0.503993708291091,[,fNTi
69,Display Faces,enlarged_images/A/f2t.bmp / enlarged_images/A/f2n.bmp,,,1.0031539999763481,[,fNTi
69,ITI,ITI,,,0.27688262501033023,,
69,Fixation,+,,,2.503017708309926,,
70,Fixation,+,,,0.5035767499939539,,
70,Display Faces,enlarged_images/A/f4n.bmp / enlarged_images/A/f4n.bmp,,,0.5040059166494757,[,fNN
70,Display Faces,enlarged_images/A/f4n.bmp / enlarged_images/A/f4n.bmp,,,1.0029620000277646,[,fNN
70,ITI,ITI,,,0.4523121666861698,,
70,Fixation,+,,,2.5023251666571014,,
71,Fixation,+,,,0.5046853750245646,,
71,Display Faces,enlarged_images/A/f1n.bmp / enlarged_images/A/f1t.bmp,,,0.503845791623462,[,fNTi
71,Display Faces,enlarged_images/A/f1n.bmp / enlarged_images/A/f1t.bmp,,,1.0029950416646898,[,fNTi
71,ITI,ITI,,,0.7025516249705106,,
71,Fixation,+,,,2.502741416625213,,
72,Fixation,+,,,0.503938875044696,,
72,Display Faces,enlarged_images/A/f5n.bmp / enlarged_images/A/f5n.bmp,,,0.503396000014618,[,mNTc
72,Display Faces,enlarged_images/A/f5n.bmp / enlarged_images/A/f5n.bmp,,,1.0036326666595414,[,mNTc
72,ITI,ITI,,,0.5522237083641812,,
72,Fixation,+,,,2.502295000012964,,
73,Fixation,+,,,0.5045183332986198,,
73,Display Faces,enlarged_images/A/f3n.bmp / enlarged_images/A/f3t.bmp,,,0.5041069166036323,[,fNTi
73,Display Faces,enlarged_images/A/f3n.bmp / enlarged_images/A/f3t.bmp,,,1.0030459583504125,[,fNTi
73,ITI,ITI,,,0.3270591666805558,,
73,Fixation,+,,,2.5025104583473876,,
74,Fixation,+,,,0.5040285416180268,,
74,Display Faces,enlarged_images/A/m4t.bmp / enlarged_images/A/m4n.bmp,,,0.5037146250251681,[,mNTi
74,Display Faces,enlarged_images/A/m4t.bmp / enlarged_images/A/m4n.bmp,,,1.003031583270058,[,mNTi
74,ITI,ITI,,,0.3272714166669175,,
74,Fixation,+,,,2.5026018749922514,,
75,Fixation,+,,,0.5042975416290574,,
75,Display Faces,enlarged_images/A/f2n.bmp / enlarged_images/A/f2t.bmp,,,0.5037977499887347,[,fNTi
75,Display Faces,enlarged_images/A/f2n.bmp / enlarged_images/A/f2t.bmp,,,1.0034122500219382,[,fNTi
75,ITI,ITI,,,0.37685437500476837,,
75,Fixation,+,,,2.502275708306115,,
76,Fixation,+,,,0.5034490416292101,,
76,Display Faces,enlarged_images/A/m4n.bmp / enlarged_images/A/m4n.bmp,,,0.5034990417188965,[,mNN
76,Display Faces,enlarged_images/A/m4n.bmp / enlarged_images/A/m4n.bmp,,,1.0030793334008195,[,mNN
76,ITI,ITI,,,0.527155666728504,,
76,Fixation,+,,,2.5022557916818187,,
77,Fixation,+,,,0.5044221249991097,,
77,Display Faces,enlarged_images/A/f4n.bmp / enlarged_images/A/f4n.bmp,,,0.5036778749781661,[,mNTc
77,Display Faces,enlarged_images/A/f4n.bmp / enlarged_images/A/f4n.bmp,,,1.0035637082764879,[,mNTc
77,ITI,ITI,,,0.5523185833008029,,
77,Fixation,+,,,2.5025478749885224,,
78,Fixation,+,,,0.5043926666257903,,
78,Display Faces,enlarged_images/A/f4t.bmp / enlarged_images/A/f4n.bmp,,,0.5036419166135602,[,fNTi
78,Display Faces,enlarged_images/A/f4t.bmp / enlarged_images/A/f4n.bmp,,,1.0029706666246057,[,fNTi
78,ITI,ITI,,,0.6771830833167769,,
78,Fixation,+,,,2.502257333311718,,
79,Fixation,+,,,0.5043986667296849,,
79,Display Faces,enlarged_images/A/f4n.bmp / enlarged_images/A/f4n.bmp,,,0.5038572917110287,[,mNTc
79,Display Faces,enlarged_images/A/f4n.bmp / enlarged_images/A/f4n.bmp,,,1.0031754166120663,[,mNTc
79,ITI,ITI,,,0.47699829167686403,,
79,Fixation,+,,,2.5023320832988247,,
80,Fixation,+,,,0.5046164583181962,,
80,Display Faces,enlarged_images/A/f5n.bmp / enlarged_images/A/f5n.bmp,,,0.5035434582969174,[,mNTc
80,Display Faces,enlarged_images/A/f5n.bmp / enlarged_images/A/f5n.bmp,,,1.0030327083077282,[,mNTc
80,ITI,ITI,,,0.3771394999930635,,
80,Fixation,+,,,2.502122000034433,,
81,Fixation,+,,,0.5044572916813195,,
81,Display Faces,enlarged_images/A/m1n.bmp / enlarged_images/A/m1n.bmp,,,0.5040974583826028,[,mNN
81,Display Faces,enlarged_images/A/m1n.bmp / enlarged_images/A/m1n.bmp,,,1.0030359167139977,[,mNN
81,ITI,ITI,,,0.527063374989666,,
81,Fixation,+,,,2.5025245000142604,,
82,Fixation,+,,,0.5036051250062883,,
82,Display Faces,enlarged_images/A/f1n.bmp / enlarged_images/A/f1n.bmp,,,0.5035067917197011,[,mNTc
82,Display Faces,enlarged_images/A/f1n.bmp / enlarged_images/A/f1n.bmp,,,1.0031117500038818,[,mNTc
82,ITI,ITI,,,0.5521304583526216,,
82,Fixation,+,,,2.5028883332852274,,
83,Fixation,+,,,0.5044661249849014,,
83,Display Faces,enlarged_images/A/f2n.bmp / enlarged_images/A/f2n.bmp,,,0.5038246249896474,[,fNTc
83,Display Faces,enlarged_images/A/f2n.bmp / enlarged_images/A/f2n.bmp,,,1.0032518333755434,[,fNTc
83,ITI,ITI,,,0.40203545830445364,,
83,Fixation,+,,,2.5024411666672677,,
84,Fixation,+,,,0.503356208326295,,
84,Display Faces,enlarged_images/A/f5t.bmp / enlarged_images/A/f5n.bmp,,,0.5035152499913238,[,fNTi
84,Display Faces,enlarged_images/A/f5t.bmp / enlarged_images/A/f5n.bmp,,,1.0035199166741222,[,fNTi
84,ITI,ITI,,,0.7524684583768249,,
84,Fixation,+,,,2.502288124989718,,
85,Fixation,+,,,0.504606916627381,,
85,Display Faces,enlarged_images/A/m4t.bmp / enlarged_images/A/m4n.bmp,,,0.5040537500171922,[,mNTi
85,Display Faces,enlarged_images/A/m4t.bmp / enlarged_images/A/m4n.bmp,,,1.003565416613128,[,mNTi
85,ITI,ITI,,,0.7270591250271536,,
85,Fixation,+,,,2.5024048750055954,,
86,Fixation,+,,,0.5040834583342075,,
86,Display Faces,enlarged_images/A/f4n.bmp / enlarged_images/A/f4n.bmp,,,0.5036352917086333,[,fNTc
86,Display Faces,enlarged_images/A/f4n.bmp / enlarged_images/A/f4n.bmp,,,1.003257166594267,[,fNTc
86,ITI,ITI,,,0.4267923333100043,,
86,Fixation,+,,,2.502491666644346,,
87,Fixation,+,,,0.5043680833769031,,
87,Display Faces,enlarged_images/A/f3n.bmp / enlarged_images/A/f3n.bmp,,,0.5036509166820906,[,fNTc
87,Display Faces,enlarged_images/A/f3n.bmp / enlarged_images/A/f3n.bmp,,,1.0031414999975823,[,fNTc
87,ITI,ITI,,,0.7276146250078455,,
87,Fixation,+,,,2.502830458281096,,
88,Fixation,+,,,0.5039188750088215,,
88,Display Faces,enlarged_images/A/f5n.bmp / enlarged_images/A/f5n.bmp,,,0.5039869166212156,[,fNTc
88,Display Faces,enlarged_images/A/f5n.bmp / enlarged_images/A/f5n.bmp,,,1.0031023332849145,[,fNTc
88,ITI,ITI,,,0.42713720828760415,,
88,Fixation,+,,,2.5022895416477695,,
89,Fixation,+,,,0.5044083332759328,,
89,Display Faces,enlarged_images/A/f4n.bmp / enlarged_images/A/f4n.bmp,,,0.5036434166249819,[,fNN
89,Display Faces,enlarged_images/A/f4n.bmp / enlarged_images/A/f4n.bmp,,,1.0030991249950603,[,fNN
89,ITI,ITI,,,0.6272447499795817,,
89,Fixation,+,,,2.502264083363116,,
90,Fixation,+,,,0.5036124583566561,,
90,Display Faces,enlarged_images/A/f4n.bmp / enlarged_images/A/f4n.bmp,,,0.503721333341673,[,mNTc
90,Display Faces,enlarged_images/A/f4n.bmp / enlarged_images/A/f4n.bmp,,,1.0034809583448805,[,mNTc
90,ITI,ITI,,,0.3022675833199173,,
90,Fixation,+,,,2.502764541655779,,
91,Fixation,+,,,0.504941624996718,,
91,Display Faces,enlarged_images/A/f1n.bmp / enlarged_images/A/f1n.bmp,,,0.5040743749705143,[,fNTc
91,Display Faces,enlarged_images/A/f1n.bmp / enlarged_images/A/f1n.bmp,,,1.0031715832883492,[,fNTc
91,ITI,ITI,,,0.2772852083435282,,
91,Fixation,+,,,2.502279083360918,,
92,Fixation,+,,,0.5038427917170338,,
92,Display Faces,enlarged_images/A/f2n.bmp / enlarged_images/A/f2n.bmp,,,0.5036047916510142,[,fNN
92,Display Faces,enlarged_images/A/f2n.bmp / enlarged_images/A/f2n.bmp,,,1.0033433749922551,[,fNN
92,ITI,ITI,,,0.6771767499740236,,
92,Fixation,+,,,2.502561333356425,,
93,Fixation,+,,,0.5050063332892023,,
93,Display Faces,enlarged_images/A/f2n.bmp / enlarged_images/A/f2n.bmp,,,0.5035575000219978,[,fNN
93,Display Faces,enlarged_images/A/f2n.bmp / enlarged_images/A/f2n.bmp,,,1.002980999997817,[,fNN
93,ITI,ITI,,,0.4272239999845624,,
93,Fixation,+,,,2.502290958305821,,
94,Fixation,+,,,0.5038819999899715,,
94,Display Faces,enlarged_images/A/f1t.bmp / enlarged_images/A/f1n.bmp,,,0.5034923334023915,[,fNTi
94,Display Faces,enlarged_images/A/f1t.bmp / enlarged_images/A/f1n.bmp,,,1.0032385416561738,[,fNTi
94,ITI,ITI,,,0.45199670834699646,,
94,Fixation,+,,,2.5021962499595247,,
95,Fixation,+,,,0.5035606666351669,,
95,Display Faces,enlarged_images/A/f2n.bmp / enlarged_images/A/f2n.bmp,,,0.5043428334174678,[,fNN
95,Display Faces,enlarged_images/A/f2n.bmp / enlarged_images/A/f2n.bmp,,,1.0032004583626986,[,fNN
95,ITI,ITI,,,0.3774637916358188,,
95,Fixation,+,,,2.5027403333224356,,
96,Fixation,+,,,0.5033672082936391,,
96,Display Faces,enlarged_images/A/m2n.bmp / enlarged_images/A/m2n.bmp,,,0.5035351249971427,[,mNN
96,Display Faces,enlarged_images/A/m2n.bmp / enlarged_images/A/m2n.bmp,,,1.0035477082710713,[,mNN
96,ITI,ITI,,,0.32699829165358096,,
96,Fixation,+,,,2.502282791712787,,
97,Fixation,+,,,0.5041897917399183,,
97,Display Faces,enlarged_images/A/f3n.bmp / enlarged_images/A/f3n.bmp,,,0.5043416667031124,[,mNTc
97,Display Faces,enlarged_images/A/f3n.bmp / enlarged_images/A/f3n.bmp,,,1.0038695833063684,[,mNTc
97,ITI,ITI,,,0.7270957083674148,,
97,Fixation,+,,,2.502448833314702,,
98,Fixation,+,,,0.504494916589465,,
98,Display Faces,enlarged_images/A/m4n.bmp / enlarged_images/A/m4n.bmp,,,0.5035912916646339,[,mNN
98,Display Faces,enlarged_images/A/m4n.bmp / enlarged_images/A/m4n.bmp,,,1.0035867916885763,[,mNN
98,ITI,ITI,,,0.5773430417175405,,
98,Fixation,+,,,2.5027750416775234,,
99,Fixation,+,,,0.5046424583997577,,
99,Display Faces,enlarged_images/A/f1n.bmp / enlarged_images/A/f1n.bmp,,,0.5037423750036396,[,fNN
99,Display Faces,enlarged_images/A/f1n.bmp / enlarged_images/A/f1n.bmp,,,1.003168166615069,[,fNN
99,ITI,ITI,,,0.6770648750243708,,
99,Fixation,+,,,2.5024174166610464,,
100,Fixation,+,,,0.5040032500401139,,
100,Display Faces,enlarged_images/A/f1n.bmp / enlarged_images/A/f1n.bmp,,,0.5039942917064764,[,mNTc
100,Display Faces,enlarged_images/A/f1n.bmp / enlarged_images/A/f1n.bmp,,,1.003223458363209,[,mNTc
100,ITI,ITI,,,0.7019990416592918,,
100,Fixation,+,,,2.5026613749796525,,
101,Fixation,+,,,0.5041661249706522,,
101,Display Faces,enlarged_images/A/f4n.bmp / enlarged_images/A/f4t.bmp,,,0.5040582916117273,[,fNTi
101,Display Faces,enlarged_images/A/f4n.bmp / enlarged_images/A/f4t.bmp,,,1.0031251666950993,[,fNTi
101,ITI,ITI,,,0.32720649999100715,,
101,Fixation,+,,,2.50237516668858,,
102,Fixation,+,,,0.5033271667198278,,
102,Display Faces,enlarged_images/A/f5n.bmp / enlarged_images/A/f5n.bmp,,,0.5036493333755061,[,fNN
102,Display Faces,enlarged_images/A/f5n.bmp / enlarged_images/A/f5n.bmp,,,1.0033261666540056,[,fNN
102,ITI,ITI,,,0.6519595416611992,,
102,Fixation,+,,,2.5024149999953806,,
103,Fixation,+,,,0.5039090000209399,,
103,Display Faces,enlarged_images/A/m5n.bmp / enlarged_images/A/m5n.bmp,,,0.5041695833206177,[,mNN
103,Display Faces,enlarged_images/A/m5n.bmp / enlarged_images/A/m5n.bmp,,,1.0044277083361521,[,mNN
103,ITI,ITI,,,0.2525984999956563,,
103,Fixation,+,,,2.5023795416927896,,
104,Fixation,+,,,0.5041608333121985,,
104,Display Faces,enlarged_images/A/f3t.bmp / enlarged_images/A/f3n.bmp,,,0.5039744999958202,[,fNTi
104,Display Faces,enlarged_images/A/f3t.bmp / enlarged_images/A/f3n.bmp,,,1.0030087500344962,[,fNTi
104,ITI,ITI,,,0.37703945831162855,,
104,Fixation,+,,,2.5022272499627434,,
105,Fixation,+,,,0.5046248749713413,,
105,Display Faces,enlarged_images/A/f1n.bmp / enlarged_images/A/f1n.bmp,,,0.5038062499952503,[,fNN
105,Display Faces,enlarged_images/A/f1n.bmp / enlarged_images/A/f1n.bmp,,,1.003129958291538,[,fNN
105,ITI,ITI,,,0.2772471667267382,,
105,Fixation,+,,,2.502278916654177,,
106,Fixation,+,,,0.5037992916768417,,
106,Display Faces,enlarged_images/A/f3n.bmp / enlarged_images/A/f3n.bmp,,,0.5034131249994971,[,fNN
106,Display Faces,enlarged_images/A/f3n.bmp / enlarged_images/A/f3n.bmp,,,1.0032835833844729,[,fNN
106,ITI,ITI,,,0.4770115000428632,,
106,Fixation,+,,,2.502548791584559,,
107,Fixation,+,,,0.5027753332979046,,
107,Display Faces,enlarged_images/A/f4n.bmp / enlarged_images/A/f4n.bmp,,,0.5039306666585617,[,fNTc
107,Display Faces,enlarged_images/A/f4n.bmp / enlarged_images/A/f4n.bmp,,,1.0031701666885056,[,fNTc
107,ITI,ITI,,,0.727115583315026,,
107,Fixation,+,,,2.502389041648712,,
108,Fixation,+,,,0.503762666718103,,
108,Display Faces,enlarged_images/A/f4n.bmp / enlarged_images/A/f4n.bmp,,,0.5035321667091921,[,fNTc
108,Display Faces,enlarged_images/A/f4n.bmp / enlarged_images/A/f4n.bmp,,,1.003159708401654,[,fNTc
108,ITI,ITI,,,0.47703025001101196,,
108,Fixation,+,,,2.502583583293017,,
109,Fixation,+,,,0.5030962500022724,,
109,Display Faces,enlarged_images/A/m3n.bmp / enlarged_images/A/m3n.bmp,,,0.5034700416726992,[,mNN
109,Display Faces,enlarged_images/A/m3n.bmp / enlarged_images/A/m3n.bmp,,,1.0037843332975172,[,mNN
109,ITI,ITI,,,0.3023135000257753,,
109,Fixation,+,,,2.502276166691445,,
110,Fixation,+,,,0.5044817916932516,,
110,Display Faces,enlarged_images/A/f5n.bmp / enlarged_images/A/f5n.bmp,,,0.5036643749917857,[,fNTc
110,Display Faces,enlarged_images/A/f5n.bmp / enlarged_images/A/f5n.bmp,,,1.0032608750043437,[,fNTc
110,ITI,ITI,,,0.3522856666822918,,
110,Fixation,+,,,2.502503458294086,,
111,Fixation,+,,,0.5036980832810514,,
111,Display Faces,enlarged_images/A/f2n.bmp / enlarged_images/A/f2n.bmp,,,0.5041471250005998,[,mNTc
111,Display Faces,enlarged_images/A/f2n.bmp / enlarged_images/A/f2n.bmp,,,1.0041506667039357,[,mNTc
111,ITI,ITI,,,0.3272050416562706,,
111,Fixation,+,,,2.502271291683428,,
112,Fixation,+,,,0.5034172916784883,,
112,Display Faces,enlarged_images/A/f5n.bmp / enlarged_images/A/f5n.bmp,,,0.5034531249548309,[,fNN
112,Display Faces,enlarged_images/A/f5n.bmp / enlarged_images/A/f5n.bmp,,,1.0031824166653678,[,fNN
112,ITI,ITI,,,0.3770609166822396,,
112,Fixation,+,,,2.5022003332851455,,
113,Fixation,+,,,0.5029707083594985,,
113,Display Faces,enlarged_images/A/m5n.bmp / enlarged_images/A/m5t.bmp,,,0.5040852500242181,[,mNTi
113,Display Faces,enlarged_images/A/m5n.bmp / enlarged_images/A/m5t.bmp,,,1.0030365833081305,[,mNTi
113,ITI,ITI,,,0.6773772083106451,,
113,Fixation,+,,,2.503187499998603,,
114,Fixation,+,,,0.5035419583437033,,
114,Display Faces,enlarged_images/A/f2n.bmp / enlarged_images/A/f2n.bmp,,,0.5035403749789111,[,mNTc
114,Display Faces,enlarged_images/A/f2n.bmp / enlarged_images/A/f2n.bmp,,,1.0034486249787733,[,mNTc
114,ITI,ITI,,,0.2520104583236389,,
114,Fixation,+,,,2.5021810416365042,,
115,Fixation,+,,,0.5040652917232364,,
115,Display Faces,enlarged_images/A/f3n.bmp / enlarged_images/A/f3n.bmp,,,0.5043862916645594,[,fNN
115,Display Faces,enlarged_images/A/f3n.bmp / enlarged_images/A/f3n.bmp,,,1.0031215000199154,[,fNN
115,ITI,ITI,,,0.2525122083025053,,
115,Fixation,+,,,2.502531458332669,,
116,Fixation,+,,,0.5039857083465904,,
116,Display Faces,enlarged_images/A/m1n.bmp / enlarged_images/A/m1t.bmp,,,0.5039424583083019,[,mNTi
116,Display Faces,enlarged_images/A/m1n.bmp / enlarged_images/A/m1t.bmp,,,1.003768166701775,[,mNTi
116,ITI,ITI,,,0.6025551666971296,,
116,Fixation,+,,,2.5023575833183713,,
117,Fixation,+,,,0.5042536666733213,,
117,Display Faces,enlarged_images/A/f1n.bmp / enlarged_images/A/f1n.bmp,,,0.5036551667144522,[,fNTc
117,Display Faces,enlarged_images/A/f1n.bmp / enlarged_images/A/f1n.bmp,,,1.003372541628778,[,fNTc
117,ITI,ITI,,,0.35239445831393823,,
117,Fixation,+,,,2.5023651250521652,,
118,Fixation,+,,,0.5033100000000559,,
118,Display Faces,enlarged_images/A/m3n.bmp / enlarged_images/A/m3t.bmp,,,0.503566708357539,[,mNTi
118,Display Faces,enlarged_images/A/m3n.bmp / enlarged_images/A/m3t.bmp,,,1.0030299582867883,[,mNTi
118,ITI,ITI,,,0.577230499999132,,
118,Fixation,+,,,2.5022354166721925,,
119,Fixation,+,,,0.5038175833760761,,
119,Display Faces,enlarged_images/A/f3n.bmp / enlarged_images/A/f3n.bmp,,,0.5037486249930225,[,mNTc
119,Display Faces,enlarged_images/A/f3n.bmp / enlarged_images/A/f3n.bmp,,,1.0034101250348613,[,mNTc
119,ITI,ITI,,,0.30234683328308165,,
119,Fixation,+,,,2.5027400000253692,,
120,Fixation,+,,,0.5040226666606031,,
120,Display Faces,enlarged_images/A/m3t.bmp / enlarged_images/A/m3n.bmp,,,0.5036839583190158,[,mNTi
120,Display Faces,enlarged_images/A/m3t.bmp / enlarged_images/A/m3n.bmp,,,1.0030073749949224,[,mNTi
120,ITI,ITI,,,0.6772271667141467,,
120,Fixation,+,,,2.5023097916855477,,
