Trial_ID,Step,Stimulus,Response,ResponseTime,Duration,CorrectAnswer,Type
1.0,Fixation,+,,,0.5101966250222176,,
1.0,Display Faces,enlarged_images/B/f1n.bmp / enlarged_images/B/f1n.bmp,,,0.5092620416544378,[,fNN
1.0,Display Faces,enlarged_images/B/f1n.bmp / enlarged_images/B/f1n.bmp,,,1.0038737083086744,[,fNN
1.0,ITI,ITI,,,0.4771882083150558,,
1.0,Fixation,+,,,2.5030074166716076,,
2.0,Fixation,+,,,0.5042319166241214,,
2.0,Display Faces,enlarged_images/B/f2n.bmp / enlarged_images/B/f2n.bmp,,,0.5044237083639018,[,mNTc
2.0,Display Faces,enlarged_images/B/f2n.bmp / enlarged_images/B/f2n.bmp,,,1.0040296249790117,[,mNTc
2.0,ITI,ITI,,,0.7271286665927619,,
2.0,Fixation,+,,,2.5031254999921657,,
3.0,Fixation,+,,,0.5047123333788477,,
3.0,Display Faces,enlarged_images/B/f2n.bmp / enlarged_images/B/f2t.bmp,,,0.5053763333125971,[,fNTi
3.0,Display Faces,enlarged_images/B/f2n.bmp / enlarged_images/B/f2t.bmp,,,1.003494041680824,[,fNTi
3.0,ITI,ITI,,,0.4775942083215341,,
3.0,Fixation,+,,,2.502937958284747,,
4.0,Fixation,+,,,0.5051619166042656,,
4.0,Display Faces,enlarged_images/B/m1n.bmp / enlarged_images/B/m1n.bmp,,,0.5049755000509322,[,mNN
4.0,Display Faces,enlarged_images/B/m1n.bmp / enlarged_images/B/m1n.bmp,,,1.003724833310116,[,mNN
4.0,ITI,ITI,,,0.2578462917008437,,
4.0,Fixation,+,,,2.503345791657921,,
5.0,Fixation,+,,,0.5071517917094752,,
5.0,Display Faces,enlarged_images/B/f3n.bmp / enlarged_images/B/f3n.bmp,,,0.5054477917146869,[,fNTc
5.0,Display Faces,enlarged_images/B/f3n.bmp / enlarged_images/B/f3n.bmp,,,1.0039719166816212,[,fNTc
5.0,ITI,ITI,,,0.4778739166795276,,
5.0,Fixation,+,,,2.5033574999542907,,
6.0,Fixation,+,,,0.5047500833170488,,
6.0,Display Faces,enlarged_images/B/f4n.bmp / enlarged_images/B/f4n.bmp,,,0.5046336249797605,[,fNN
6.0,Display Faces,enlarged_images/B/f4n.bmp / enlarged_images/B/f4n.bmp,,,1.003714166698046,[,fNN
6.0,ITI,ITI,,,0.45235883339773864,,
6.0,Fixation,+,,,2.502889916591812,,
7.0,Fixation,+,,,0.5044229999766685,,
7.0,Display Faces,enlarged_images/B/f5n.bmp / enlarged_images/B/f5n.bmp,,,0.5050233749789186,[,fNTc
7.0,Display Faces,enlarged_images/B/f5n.bmp / enlarged_images/B/f5n.bmp,,,1.003971208294388,[,fNTc
7.0,ITI,ITI,,,0.3524575416231528,,
7.0,Fixation,+,,,2.503502291685436,,
8.0,Fixation,+,,,0.5048388750292361,,
8.0,Display Faces,enlarged_images/B/m3t.bmp / enlarged_images/B/m3n.bmp,,,0.5048627499490976,[,mNTi
8.0,Display Faces,enlarged_images/B/m3t.bmp / enlarged_images/B/m3n.bmp,,,1.004821333277505,[,mNTi
8.0,ITI,ITI,,,0.7026834167190827,,
8.0,Fixation,+,,,2.507699625042733,,
9.0,Fixation,+,,,0.5042117499979213,,
9.0,Display Faces,enlarged_images/B/m4n.bmp / enlarged_images/B/m4n.bmp,,,0.504877166589722,[,mNN
9.0,Display Faces,enlarged_images/B/m4n.bmp / enlarged_images/B/m4n.bmp,,,1.0040878333384171,[,mNN
9.0,ITI,ITI,,,0.702855791663751,,
9.0,Fixation,+,,,2.502998791693244,,
10.0,Fixation,+,,,0.5040500416071154,,
10.0,Display Faces,enlarged_images/B/f1n.bmp / enlarged_images/B/f1n.bmp,,,0.5041982916882262,[,fNTc
10.0,Display Faces,enlarged_images/B/f1n.bmp / enlarged_images/B/f1n.bmp,,,1.002976291696541,[,fNTc
10.0,ITI,ITI,,,0.3519954166840762,,
10.0,Fixation,+,,,2.5027405000291765,,
11.0,Fixation,+,,,0.5041256249533035,,
11.0,Display Faces,enlarged_images/B/f2n.bmp / enlarged_images/B/f2n.bmp,,,0.5038518750225194,[,fNN
11.0,Display Faces,enlarged_images/B/f2n.bmp / enlarged_images/B/f2n.bmp,,,1.0029778333264403,[,fNN
11.0,ITI,ITI,,,0.6771083333296701,,
11.0,Fixation,+,,,2.502489125006832,,
12.0,Fixation,+,,,0.5040272499900311,,
12.0,Display Faces,enlarged_images/B/m5n.bmp / enlarged_images/B/m5n.bmp,,,0.5044468333362602,[,mNN
12.0,Display Faces,enlarged_images/B/m5n.bmp / enlarged_images/B/m5n.bmp,,,1.0034496249863878,[,mNN
12.0,ITI,ITI,,,0.6522875415976159,,
12.0,Fixation,+,,,2.502502416667994,,
13.0,Fixation,+,,,0.5039560833247378,,
13.0,Display Faces,enlarged_images/B/f1n.bmp / enlarged_images/B/f1n.bmp,,,0.5036487499601208,[,mNTc
13.0,Display Faces,enlarged_images/B/f1n.bmp / enlarged_images/B/f1n.bmp,,,1.0032910833251663,[,mNTc
13.0,ITI,ITI,,,0.6271035833633505,,
13.0,Fixation,+,,,2.5031204999540932,,
14.0,Fixation,+,,,0.5043207915732637,,
14.0,Display Faces,enlarged_images/B/f1n.bmp / enlarged_images/B/f1n.bmp,,,0.5037359583075158,[,mNTc
14.0,Display Faces,enlarged_images/B/f1n.bmp / enlarged_images/B/f1n.bmp,,,1.0030368749867193,[,mNTc
14.0,ITI,ITI,,,0.6520364166353829,,
14.0,Fixation,+,,,2.502642333274707,,
15.0,Fixation,+,,,0.5046460833400488,,
15.0,Display Faces,enlarged_images/B/f3n.bmp / enlarged_images/B/f3n.bmp,,,0.5037239582743496,[,fNN
15.0,Display Faces,enlarged_images/B/f3n.bmp / enlarged_images/B/f3n.bmp,,,1.0028994582826272,[,fNN
15.0,ITI,ITI,,,0.2525163749814965,,
15.0,Fixation,+,,,2.502789375022985,,
16.0,Fixation,+,,,0.5044271667138673,,
16.0,Display Faces,enlarged_images/B/f4n.bmp / enlarged_images/B/f4n.bmp,,,0.503741666674614,[,fNN
16.0,Display Faces,enlarged_images/B/f4n.bmp / enlarged_images/B/f4n.bmp,,,1.0031671249889769,[,fNN
16.0,ITI,ITI,,,0.7520314166904427,,
16.0,Fixation,+,,,2.5024550833622925,,
17.0,Fixation,+,,,0.5039850000175647,,
17.0,Display Faces,enlarged_images/B/f1t.bmp / enlarged_images/B/f1n.bmp,,,0.5042389999725856,[,fNTi
17.0,Display Faces,enlarged_images/B/f1t.bmp / enlarged_images/B/f1n.bmp,,,1.0030042083817534,[,fNTi
17.0,ITI,ITI,,,0.6022884583217092,,
17.0,Fixation,+,,,2.5027051250217482,,
18.0,Fixation,+,,,0.5045674583525397,,
18.0,Display Faces,enlarged_images/B/m4n.bmp / enlarged_images/B/m4n.bmp,,,0.5034988333354704,[,mNN
18.0,Display Faces,enlarged_images/B/m4n.bmp / enlarged_images/B/m4n.bmp,,,1.003113791695796,[,mNN
18.0,ITI,ITI,,,0.5271968333399855,,
18.0,Fixation,+,,,2.5022923333453946,,
19.0,Fixation,+,,,0.5042572499951348,,
19.0,Display Faces,enlarged_images/B/f2n.bmp / enlarged_images/B/f2n.bmp,,,0.503815374977421,[,mNTc
19.0,Display Faces,enlarged_images/B/f2n.bmp / enlarged_images/B/f2n.bmp,,,1.0031996666220948,[,mNTc
19.0,ITI,ITI,,,0.7274976249900647,,
19.0,Fixation,+,,,2.5025449999957345,,
20.0,Fixation,+,,,0.504349916591309,,
20.0,Display Faces,enlarged_images/B/f1n.bmp / enlarged_images/B/f1n.bmp,,,0.5034593332675286,[,mNTc
20.0,Display Faces,enlarged_images/B/f1n.bmp / enlarged_images/B/f1n.bmp,,,1.0036302916705608,[,mNTc
20.0,ITI,ITI,,,0.4025320832733996,,
20.0,Fixation,+,,,2.5027116666315123,,
21.0,Fixation,+,,,0.5042382082901895,,
21.0,Display Faces,enlarged_images/B/f3n.bmp / enlarged_images/B/f3t.bmp,,,0.5040938333258964,[,fNTi
21.0,Display Faces,enlarged_images/B/f3n.bmp / enlarged_images/B/f3t.bmp,,,1.0030726249678992,[,fNTi
21.0,ITI,ITI,,,0.6022810416761786,,
21.0,Fixation,+,,,2.502399666584097,,
22.0,Fixation,+,,,0.5044423333602026,,
22.0,Display Faces,enlarged_images/B/f1t.bmp / enlarged_images/B/f1n.bmp,,,0.5039567916537635,[,fNTi
22.0,Display Faces,enlarged_images/B/f1t.bmp / enlarged_images/B/f1n.bmp,,,1.0034245832939632,[,fNTi
22.0,ITI,ITI,,,0.6773796249763109,,
22.0,Fixation,+,,,2.503130708297249,,
23.0,Fixation,+,,,0.5041513749747537,,
23.0,Display Faces,enlarged_images/B/f1n.bmp / enlarged_images/B/f1t.bmp,,,0.5034942083293572,[,fNTi
23.0,Display Faces,enlarged_images/B/f1n.bmp / enlarged_images/B/f1t.bmp,,,1.002924083324615,[,fNTi
23.0,ITI,ITI,,,0.35228200000710785,,
23.0,Fixation,+,,,2.5022969582933,,
24.0,Fixation,+,,,0.5043882500031032,,
24.0,Display Faces,enlarged_images/B/f2n.bmp / enlarged_images/B/f2t.bmp,,,0.503656166663859,[,fNTi
24.0,Display Faces,enlarged_images/B/f2n.bmp / enlarged_images/B/f2t.bmp,,,1.0030078333220445,[,fNTi
24.0,ITI,ITI,,,0.3271627083886415,,
24.0,Fixation,+,,,2.502269041724503,,
25.0,Fixation,+,,,0.5046642500092275,,
25.0,Display Faces,enlarged_images/B/f1n.bmp / enlarged_images/B/f1n.bmp,,,0.5038675417308696,[,fNTc
25.0,Display Faces,enlarged_images/B/f1n.bmp / enlarged_images/B/f1n.bmp,,,1.003326541685965,[,fNTc
25.0,ITI,ITI,,,0.25222062499960884,,
25.0,Fixation,+,,,2.5022673750063404,,
26.0,Fixation,+,,,0.5047192083438858,,
26.0,Display Faces,enlarged_images/B/m4n.bmp / enlarged_images/B/m4t.bmp,,,0.5043762083514594,[,mNTi
26.0,Display Faces,enlarged_images/B/m4n.bmp / enlarged_images/B/m4t.bmp,,,1.0031253334018402,[,mNTi
26.0,ITI,ITI,,,0.40224683337146416,,
26.0,Fixation,+,,,2.5028395416447893,,
27.0,Fixation,+,,,0.5040768749895506,,
27.0,Display Faces,enlarged_images/B/f4n.bmp / enlarged_images/B/f4n.bmp,,,0.5036659999750555,[,fNTc
27.0,Display Faces,enlarged_images/B/f4n.bmp / enlarged_images/B/f4n.bmp,,,1.003099416673649,[,fNTc
27.0,ITI,ITI,,,0.7520949583267793,,
27.0,Fixation,+,,,2.5029418334015645,,
28.0,Fixation,+,,,0.5046875416883267,,
28.0,Display Faces,enlarged_images/B/f4n.bmp / enlarged_images/B/f4n.bmp,,,0.5036226666998118,[,fNTc
28.0,Display Faces,enlarged_images/B/f4n.bmp / enlarged_images/B/f4n.bmp,,,1.0038740833988413,[,fNTc
28.0,ITI,ITI,,,0.7518477500416338,,
28.0,Fixation,+,,,2.5023793333675712,,
29.0,Fixation,+,,,0.5040537916356698,,
29.0,Display Faces,enlarged_images/B/f4n.bmp / enlarged_images/B/f4t.bmp,,,0.5040576666942798,[,fNTi
29.0,Display Faces,enlarged_images/B/f4n.bmp / enlarged_images/B/f4t.bmp,,,1.0031289999606088,[,fNTi
29.0,ITI,ITI,,,0.37729104165919125,,
29.0,Fixation,+,,,2.5022980833309703,,
30.0,Fixation,+,,,0.5046462916070595,,
30.0,Display Faces,enlarged_images/B/f1n.bmp / enlarged_images/B/f1n.bmp,,,0.5036940000136383,[,mNTc
30.0,Display Faces,enlarged_images/B/f1n.bmp / enlarged_images/B/f1n.bmp,,,1.0029760000179522,[,mNTc
30.0,ITI,ITI,,,0.5272516666445881,,
30.0,Fixation,+,,,2.50311699998565,,
31.0,Fixation,+,,,0.5040133332950063,,
31.0,Display Faces,enlarged_images/B/f5n.bmp / enlarged_images/B/f5n.bmp,,,0.5040040832827799,[,mNTc
31.0,Display Faces,enlarged_images/B/f5n.bmp / enlarged_images/B/f5n.bmp,,,1.003574833390303,[,mNTc
31.0,ITI,ITI,,,0.47742579167243093,,
31.0,Fixation,+,,,2.5024326666025445,,
32.0,Fixation,+,,,0.5043480833410285,,
32.0,Display Faces,enlarged_images/B/f2t.bmp / enlarged_images/B/f2n.bmp,,,0.503772875003051,[,fNTi
32.0,Display Faces,enlarged_images/B/f2t.bmp / enlarged_images/B/f2n.bmp,,,1.0031549999839626,[,fNTi
32.0,ITI,ITI,,,0.6772468333365396,,
32.0,Fixation,+,,,2.502799083304126,,
33.0,Fixation,+,,,0.5041124999988824,,
33.0,Display Faces,enlarged_images/B/f5n.bmp / enlarged_images/B/f5n.bmp,,,0.5037071666447446,[,fNTc
33.0,Display Faces,enlarged_images/B/f5n.bmp / enlarged_images/B/f5n.bmp,,,1.0033755833283067,[,fNTc
33.0,ITI,ITI,,,0.7021713333087973,,
33.0,Fixation,+,,,2.5027127083740197,,
34.0,Fixation,+,,,0.504395583353471,,
34.0,Display Faces,enlarged_images/B/m4n.bmp / enlarged_images/B/m4n.bmp,,,0.5037374583189376,[,mNN
34.0,Display Faces,enlarged_images/B/m4n.bmp / enlarged_images/B/m4n.bmp,,,1.0030653333524242,[,mNN
34.0,ITI,ITI,,,0.47736525000073016,,
34.0,Fixation,+,,,2.5027822083211504,,
35.0,Fixation,+,,,0.5041557915974408,,
35.0,Display Faces,enlarged_images/B/f4n.bmp / enlarged_images/B/f4n.bmp,,,0.5035156249650754,[,fNTc
35.0,Display Faces,enlarged_images/B/f4n.bmp / enlarged_images/B/f4n.bmp,,,1.0028885833453387,[,fNTc
35.0,ITI,ITI,,,0.5771481249830686,,
35.0,Fixation,+,,,2.5026173333171755,,
36.0,Fixation,+,,,0.504134958377108,,
36.0,Display Faces,enlarged_images/B/m5n.bmp / enlarged_images/B/m5t.bmp,,,0.5041974166524597,[,mNTi
36.0,Display Faces,enlarged_images/B/m5n.bmp / enlarged_images/B/m5t.bmp,,,1.0030998750007711,[,mNTi
36.0,ITI,ITI,,,0.5273547083488666,,
36.0,Fixation,+,,,2.5021919166320004,,
37.0,Fixation,+,,,0.5039825417334214,,
37.0,Display Faces,enlarged_images/B/f4n.bmp / enlarged_images/B/f4t.bmp,,,0.5038087915745564,[,fNTi
37.0,Display Faces,enlarged_images/B/f4n.bmp / enlarged_images/B/f4t.bmp,,,1.0030372083419934,[,fNTi
37.0,ITI,ITI,,,0.42712091672001407,,
37.0,Fixation,+,,,2.5023588333278894,,
38.0,Fixation,+,,,0.5042614166741259,,
38.0,Display Faces,enlarged_images/B/f2t.bmp / enlarged_images/B/f2n.bmp,,,0.5037658750079572,[,fNTi
38.0,Display Faces,enlarged_images/B/f2t.bmp / enlarged_images/B/f2n.bmp,,,1.0034838750143535,[,fNTi
38.0,ITI,ITI,,,0.32705383334541693,,
38.0,Fixation,+,,,2.502442875003908,,
39.0,Fixation,+,,,0.5041152082849294,,
39.0,Display Faces,enlarged_images/B/f3n.bmp / enlarged_images/B/f3n.bmp,,,0.5036083332961425,[,fNN
39.0,Display Faces,enlarged_images/B/f3n.bmp / enlarged_images/B/f3n.bmp,,,1.003042708383873,[,fNN
39.0,ITI,ITI,,,0.5521611250005662,,
39.0,Fixation,+,,,2.5026119583053514,,
40.0,Fixation,+,,,0.5043587082764134,,
40.0,Display Faces,enlarged_images/B/f3n.bmp / enlarged_images/B/f3n.bmp,,,0.5053797917207703,[,mNTc
40.0,Display Faces,enlarged_images/B/f3n.bmp / enlarged_images/B/f3n.bmp,,,1.0030857083038427,[,mNTc
40.0,ITI,ITI,,,0.7021697500022128,,
40.0,Fixation,+,,,2.502732124994509,,
41.0,Fixation,+,,,0.5046712500043213,,
41.0,Display Faces,enlarged_images/B/m3n.bmp / enlarged_images/B/m3t.bmp,,,0.5037568332627416,[,mNTi
41.0,Display Faces,enlarged_images/B/m3n.bmp / enlarged_images/B/m3t.bmp,,,1.003037583315745,[,mNTi
41.0,ITI,ITI,,,0.652338833315298,,
41.0,Fixation,+,,,2.502725291706156,,
42.0,Fixation,+,,,0.5042339166393504,,
42.0,Display Faces,enlarged_images/B/m2n.bmp / enlarged_images/B/m2n.bmp,,,0.5088539166026749,[,mNN
42.0,Display Faces,enlarged_images/B/m2n.bmp / enlarged_images/B/m2n.bmp,,,1.003047708363738,[,mNN
42.0,ITI,ITI,,,0.42733829165808856,,
42.0,Fixation,+,,,2.502451625012327,,
43.0,Fixation,+,,,0.5039567084168084,,
43.0,Display Faces,enlarged_images/B/f1n.bmp / enlarged_images/B/f1n.bmp,,,0.5037639167276211,[,fNN
43.0,Display Faces,enlarged_images/B/f1n.bmp / enlarged_images/B/f1n.bmp,,,1.0029902083333582,[,fNN
43.0,ITI,ITI,,,0.6771394583629444,,
43.0,Fixation,+,,,2.502899666724261,,
44.0,Fixation,+,,,0.5046354167279787,,
44.0,Display Faces,enlarged_images/B/f5n.bmp / enlarged_images/B/f5n.bmp,,,0.5037418749998324,[,fNTc
44.0,Display Faces,enlarged_images/B/f5n.bmp / enlarged_images/B/f5n.bmp,,,1.0030968749779277,[,fNTc
44.0,ITI,ITI,,,0.327870124951005,,
44.0,Fixation,+,,,2.503182333370205,,
45.0,Fixation,+,,,0.5042558750137687,,
45.0,Display Faces,enlarged_images/B/m5n.bmp / enlarged_images/B/m5n.bmp,,,0.5038814166910015,[,mNN
45.0,Display Faces,enlarged_images/B/m5n.bmp / enlarged_images/B/m5n.bmp,,,1.0033918332774192,[,mNN
45.0,ITI,ITI,,,0.4274491249816492,,
45.0,Fixation,+,,,2.5025997916818596,,
46.0,Fixation,+,,,0.5060576666728593,,
46.0,Display Faces,enlarged_images/B/f2n.bmp / enlarged_images/B/f2n.bmp,,,0.5036835833452642,[,fNN
46.0,Display Faces,enlarged_images/B/f2n.bmp / enlarged_images/B/f2n.bmp,,,1.0036773333558813,[,fNN
46.0,ITI,ITI,,,0.27728833339642733,,
46.0,Fixation,+,,,2.502430708380416,,
47.0,Fixation,+,,,0.5041084582917392,,
47.0,Display Faces,enlarged_images/B/m4t.bmp / enlarged_images/B/m4n.bmp,,,0.5036253749858588,[,mNTi
47.0,Display Faces,enlarged_images/B/m4t.bmp / enlarged_images/B/m4n.bmp,,,1.0032568333554082,[,mNTi
47.0,ITI,ITI,,,0.4525143333012238,,
47.0,Fixation,+,,,2.5023729583481327,,
48.0,Fixation,+,,,0.5043330000480637,,
48.0,Display Faces,enlarged_images/B/f2n.bmp / enlarged_images/B/f2n.bmp,,,0.5041519167134538,[,fNTc
48.0,Display Faces,enlarged_images/B/f2n.bmp / enlarged_images/B/f2n.bmp,,,1.003132833284326,[,fNTc
48.0,ITI,ITI,,,0.7519843333284371,,
48.0,Fixation,+,,,2.503048916696571,,
49.0,Fixation,+,,,0.5046678750077263,,
49.0,Display Faces,enlarged_images/B/f3n.bmp / enlarged_images/B/f3t.bmp,,,0.5037402083980851,[,fNTi
49.0,Display Faces,enlarged_images/B/f3n.bmp / enlarged_images/B/f3t.bmp,,,1.0034345000167377,[,fNTi
49.0,ITI,ITI,,,0.4521955416421406,,
49.0,Fixation,+,,,2.502829250006471,,
50.0,Fixation,+,,,0.5045592083479278,,
50.0,Display Faces,enlarged_images/B/m3t.bmp / enlarged_images/B/m3n.bmp,,,0.5044871250283904,[,mNTi
50.0,Display Faces,enlarged_images/B/m3t.bmp / enlarged_images/B/m3n.bmp,,,1.0040208332939073,[,mNTi
50.0,ITI,ITI,,,0.3775479166652076,,
50.0,Fixation,+,,,2.503706666699145,,
51.0,Fixation,+,,,0.5043115416774526,,
51.0,Display Faces,enlarged_images/B/f5n.bmp / enlarged_images/B/f5n.bmp,,,0.5034756250097416,[,fNN
51.0,Display Faces,enlarged_images/B/f5n.bmp / enlarged_images/B/f5n.bmp,,,1.003410541685298,[,fNN
51.0,ITI,ITI,,,0.3021442916360684,,
51.0,Fixation,+,,,2.502204583317507,,
52.0,Fixation,+,,,0.5047994999913499,,
52.0,Display Faces,enlarged_images/B/f4n.bmp / enlarged_images/B/f4n.bmp,,,0.5041241250000894,[,mNTc
52.0,Display Faces,enlarged_images/B/f4n.bmp / enlarged_images/B/f4n.bmp,,,1.003503083367832,[,mNTc
52.0,ITI,ITI,,,0.5770871249842457,,
52.0,Fixation,+,,,2.502438583294861,,
53.0,Fixation,+,,,0.504131999972742,,
53.0,Display Faces,enlarged_images/B/m2n.bmp / enlarged_images/B/m2n.bmp,,,0.5036087916232646,[,mNN
53.0,Display Faces,enlarged_images/B/m2n.bmp / enlarged_images/B/m2n.bmp,,,1.0029647083138116,[,mNN
53.0,ITI,ITI,,,0.7023491666768678,,
53.0,Fixation,+,,,2.5030453333165497,,
54.0,Fixation,+,,,0.505065250035841,,
54.0,Display Faces,enlarged_images/B/m4n.bmp / enlarged_images/B/m4n.bmp,,,0.5088191666873172,[,mNN
54.0,Display Faces,enlarged_images/B/m4n.bmp / enlarged_images/B/m4n.bmp,,,1.0042370416340418,[,mNN
54.0,ITI,ITI,,,0.4024006666149944,,
54.0,Fixation,+,,,2.503039125003852,,
55.0,Fixation,+,,,0.504360499966424,,
55.0,Display Faces,enlarged_images/B/f2n.bmp / enlarged_images/B/f2n.bmp,,,0.5039312500157394,[,fNTc
55.0,Display Faces,enlarged_images/B/f2n.bmp / enlarged_images/B/f2n.bmp,,,1.0035082916729152,[,fNTc
55.0,ITI,ITI,,,0.6024813749827445,,
55.0,Fixation,+,,,2.502554291684646,,
56.0,Fixation,+,,,0.5049057916039601,,
56.0,Display Faces,enlarged_images/B/f1n.bmp / enlarged_images/B/f1t.bmp,,,0.5040893332916312,[,fNTi
56.0,Display Faces,enlarged_images/B/f1n.bmp / enlarged_images/B/f1t.bmp,,,1.0034501250484027,[,fNTi
56.0,ITI,ITI,,,0.32734291662927717,,
56.0,Fixation,+,,,2.503292625013273,,
57.0,Fixation,+,,,0.5044586249860004,,
57.0,Display Faces,enlarged_images/B/f3n.bmp / enlarged_images/B/f3n.bmp,,,0.5045637083239853,[,mNTc
57.0,Display Faces,enlarged_images/B/f3n.bmp / enlarged_images/B/f3n.bmp,,,1.0038455833564512,[,mNTc
57.0,ITI,ITI,,,0.4537384583381936,,
57.0,Fixation,+,,,2.503028374980204,,
58.0,Fixation,+,,,0.5047046666149981,,
58.0,Display Faces,enlarged_images/B/f2n.bmp / enlarged_images/B/f2n.bmp,,,0.5039568750071339,[,mNTc
58.0,Display Faces,enlarged_images/B/f2n.bmp / enlarged_images/B/f2n.bmp,,,1.0035764999920502,[,mNTc
58.0,ITI,ITI,,,0.7527124583139084,,
58.0,Fixation,+,,,2.5029493749607354,,
59.0,Fixation,+,,,0.5043292916379869,,
59.0,Display Faces,enlarged_images/B/f5n.bmp / enlarged_images/B/f5t.bmp,,,0.5043469583033584,[,fNTi
59.0,Display Faces,enlarged_images/B/f5n.bmp / enlarged_images/B/f5t.bmp,,,1.0041724583134055,[,fNTi
59.0,ITI,ITI,,,0.40226845833240077,,
59.0,Fixation,+,,,2.5032831666176207,,
60.0,Fixation,+,,,0.5086702082771808,,
60.0,Display Faces,enlarged_images/B/f2n.bmp / enlarged_images/B/f2n.bmp,,,0.5066744583309628,[,fNN
60.0,Display Faces,enlarged_images/B/f2n.bmp / enlarged_images/B/f2n.bmp,,,1.003301749995444,[,fNN
60.0,ITI,ITI,,,0.6024865832878277,,
60.0,Fixation,+,,,2.502980208315421,,
61.0,Fixation,+,,,0.5047369583044201,,
61.0,Display Faces,enlarged_images/B/m3n.bmp / enlarged_images/B/m3n.bmp,,,0.5043400833383203,[,mNN
61.0,Display Faces,enlarged_images/B/m3n.bmp / enlarged_images/B/m3n.bmp,,,1.0038387916865759,[,mNN
61.0,ITI,ITI,,,0.47731775004649535,,
61.0,Fixation,+,,,2.504257333348505,,
62.0,Fixation,+,,,0.5048266666708514,,
62.0,Display Faces,enlarged_images/B/f1n.bmp / enlarged_images/B/f1n.bmp,,,0.5039285416714847,[,fNTc
62.0,Display Faces,enlarged_images/B/f1n.bmp / enlarged_images/B/f1n.bmp,,,1.0032109583262354,[,fNTc
62.0,ITI,ITI,,,0.277477000025101,,
62.0,Fixation,+,,,2.5027124999905936,,
63.0,Fixation,+,,,0.5113280000514351,,
63.0,Display Faces,enlarged_images/B/m1t.bmp / enlarged_images/B/m1n.bmp,,,0.5044900416978635,[,mNTi
63.0,Display Faces,enlarged_images/B/m1t.bmp / enlarged_images/B/m1n.bmp,,,1.0039535833057016,[,mNTi
63.0,ITI,ITI,,,0.6523999582859688,,
63.0,Fixation,+,,,2.5028801249573007,,
64.0,Fixation,+,,,0.5053384999628179,,
64.0,Display Faces,enlarged_images/B/f4n.bmp / enlarged_images/B/f4n.bmp,,,0.5043671249877661,[,fNTc
64.0,Display Faces,enlarged_images/B/f4n.bmp / enlarged_images/B/f4n.bmp,,,1.0039166667265818,[,fNTc
64.0,ITI,ITI,,,0.25233175000175834,,
64.0,Fixation,+,,,2.502683416591026,,
65.0,Fixation,+,,,0.5045970000210218,,
65.0,Display Faces,enlarged_images/B/f5n.bmp / enlarged_images/B/f5t.bmp,,,0.5039948750054464,[,fNTi
65.0,Display Faces,enlarged_images/B/f5n.bmp / enlarged_images/B/f5t.bmp,,,1.0036075417301618,[,fNTi
65.0,ITI,ITI,,,0.30226504168240353,,
65.0,Fixation,+,,,2.502361166640185,,
66.0,Fixation,+,,,0.5047484166570939,,
66.0,Display Faces,enlarged_images/B/m1n.bmp / enlarged_images/B/m1n.bmp,,,0.5040200416115113,[,mNN
66.0,Display Faces,enlarged_images/B/m1n.bmp / enlarged_images/B/m1n.bmp,,,1.0032492500031367,[,mNN
66.0,ITI,ITI,,,0.32757562497863546,,
66.0,Fixation,+,,,2.503060999966692,,
67.0,Fixation,+,,,0.5051097917021252,,
67.0,Display Faces,enlarged_images/B/f4n.bmp / enlarged_images/B/f4n.bmp,,,0.5044225833262317,[,fNN
67.0,Display Faces,enlarged_images/B/f4n.bmp / enlarged_images/B/f4n.bmp,,,1.0053824583883397,[,fNN
67.0,ITI,ITI,,,0.4026813750388101,,
67.0,Fixation,+,,,2.5031801250297576,,
68.0,Fixation,+,,,0.5045732916914858,,
68.0,Display Faces,enlarged_images/B/f3n.bmp / enlarged_images/B/f3n.bmp,,,0.504463083401788,[,fNN
68.0,Display Faces,enlarged_images/B/f3n.bmp / enlarged_images/B/f3n.bmp,,,1.0037860000156797,[,fNN
68.0,ITI,ITI,,,0.5523337916238233,,
68.0,Fixation,+,,,2.5027449167100713,,
69.0,Fixation,+,,,0.5045143333845772,,
69.0,Display Faces,enlarged_images/B/f1n.bmp / enlarged_images/B/f1n.bmp,,,0.5038789167301729,[,fNN
69.0,Display Faces,enlarged_images/B/f1n.bmp / enlarged_images/B/f1n.bmp,,,1.003695708408486,[,fNN
69.0,ITI,ITI,,,0.27740241668652743,,
69.0,Fixation,+,,,2.5025754583766684,,
70.0,Fixation,+,,,0.504226166580338,,
70.0,Display Faces,enlarged_images/B/f3n.bmp / enlarged_images/B/f3n.bmp,,,0.5043468750081956,[,fNTc
70.0,Display Faces,enlarged_images/B/f3n.bmp / enlarged_images/B/f3n.bmp,,,1.0039219166501425,[,fNTc
70.0,ITI,ITI,,,0.6524342499906197,,
70.0,Fixation,+,,,2.502741625008639,,
71.0,Fixation,+,,,0.507655999972485,,
71.0,Display Faces,enlarged_images/B/m1n.bmp / enlarged_images/B/m1n.bmp,,,0.5038915832992643,[,mNN
71.0,Display Faces,enlarged_images/B/m1n.bmp / enlarged_images/B/m1n.bmp,,,1.0029948332812637,[,mNN
71.0,ITI,ITI,,,0.25214833329664543,,
71.0,Fixation,+,,,2.5023695416748524,,
72.0,Fixation,+,,,0.5045040000113659,,
72.0,Display Faces,enlarged_images/B/f5n.bmp / enlarged_images/B/f5n.bmp,,,0.50396270834608,[,mNTc
72.0,Display Faces,enlarged_images/B/f5n.bmp / enlarged_images/B/f5n.bmp,,,1.0031055833096616,[,mNTc
72.0,ITI,ITI,,,0.45201800001086667,,
72.0,Fixation,+,,,2.502480833325535,,
73.0,Fixation,+,,,0.5044695417163894,,
73.0,Display Faces,enlarged_images/B/m1n.bmp / enlarged_images/B/m1t.bmp,,,0.5039799583610147,[,mNTi
73.0,Display Faces,enlarged_images/B/m1n.bmp / enlarged_images/B/m1t.bmp,,,1.0035514582996257,[,mNTi
73.0,ITI,ITI,,,0.377433416666463,,
73.0,Fixation,+,,,2.502693166665267,,
74.0,Fixation,+,,,0.5054137916304171,,
74.0,Display Faces,enlarged_images/B/m2n.bmp / enlarged_images/B/m2t.bmp,,,0.5047168749733828,[,mNTi
74.0,Display Faces,enlarged_images/B/m2n.bmp / enlarged_images/B/m2t.bmp,,,1.0038772500120103,[,mNTi
74.0,ITI,ITI,,,0.42729970830259845,,
74.0,Fixation,+,,,2.503386166645214,,
75.0,Fixation,+,,,0.5045128333149478,,
75.0,Display Faces,enlarged_images/B/m5n.bmp / enlarged_images/B/m5n.bmp,,,0.5038828332908452,[,mNN
75.0,Display Faces,enlarged_images/B/m5n.bmp / enlarged_images/B/m5n.bmp,,,1.0029840416973457,[,mNN
75.0,ITI,ITI,,,0.6522471666685306,,
75.0,Fixation,+,,,2.5024278750061058,,
76.0,Fixation,+,,,0.5041948750149459,,
76.0,Display Faces,enlarged_images/B/m3n.bmp / enlarged_images/B/m3n.bmp,,,0.5042877499945462,[,mNN
76.0,Display Faces,enlarged_images/B/m3n.bmp / enlarged_images/B/m3n.bmp,,,1.0036462916759774,[,mNN
76.0,ITI,ITI,,,0.4022500416613184,,
76.0,Fixation,+,,,2.5026120832771994,,
77.0,Fixation,+,,,0.5044499166542664,,
77.0,Display Faces,enlarged_images/B/f2n.bmp / enlarged_images/B/f2n.bmp,,,0.5041074166074395,[,fNN
77.0,Display Faces,enlarged_images/B/f2n.bmp / enlarged_images/B/f2n.bmp,,,1.0038526666467078,[,fNN
77.0,ITI,ITI,,,0.3022803333005868,,
77.0,Fixation,+,,,2.5022720000124536,,
78.0,Fixation,+,,,0.5042334583122283,,
78.0,Display Faces,enlarged_images/B/m3n.bmp / enlarged_images/B/m3n.bmp,,,0.503960250003729,[,mNN
78.0,Display Faces,enlarged_images/B/m3n.bmp / enlarged_images/B/m3n.bmp,,,1.0034633334144019,[,mNN
78.0,ITI,ITI,,,0.2772929999628104,,
78.0,Fixation,+,,,2.5026354999863543,,
79.0,Fixation,+,,,0.5039983333554119,,
79.0,Display Faces,enlarged_images/B/m3n.bmp / enlarged_images/B/m3n.bmp,,,0.5040153750451282,[,mNN
79.0,Display Faces,enlarged_images/B/m3n.bmp / enlarged_images/B/m3n.bmp,,,1.003493249998428,[,mNN
79.0,ITI,ITI,,,0.5273311249911785,,
79.0,Fixation,+,,,2.5031936249579303,,
80.0,Fixation,+,,,0.5047474166494794,,
80.0,Display Faces,enlarged_images/B/f5n.bmp / enlarged_images/B/f5n.bmp,,,0.5045285416999832,[,fNTc
80.0,Display Faces,enlarged_images/B/f5n.bmp / enlarged_images/B/f5n.bmp,,,1.004884125024546,[,fNTc
80.0,ITI,ITI,,,0.35248358332319185,,
80.0,Fixation,+,,,2.5028695415821858,,
81.0,Fixation,+,,,0.5046100000035949,,
81.0,Display Faces,enlarged_images/B/m5t.bmp / enlarged_images/B/m5n.bmp,,,0.5041464166715741,[,mNTi
81.0,Display Faces,enlarged_images/B/m5t.bmp / enlarged_images/B/m5n.bmp,,,1.0036678750184365,[,mNTi
81.0,ITI,ITI,,,0.5272518750280142,,
81.0,Fixation,+,,,2.5027559166774154,,
82.0,Fixation,+,,,0.5045237500453368,,
82.0,Display Faces,enlarged_images/B/m5n.bmp / enlarged_images/B/m5n.bmp,,,0.5039744999958202,[,mNN
82.0,Display Faces,enlarged_images/B/m5n.bmp / enlarged_images/B/m5n.bmp,,,1.004465416597668,[,mNN
82.0,ITI,ITI,,,0.577483041677624,,
82.0,Fixation,+,,,2.5029226666665636,,
83.0,Fixation,+,,,0.5051112083019689,,
83.0,Display Faces,enlarged_images/B/f4t.bmp / enlarged_images/B/f4n.bmp,,,0.5040699166129343,[,fNTi
83.0,Display Faces,enlarged_images/B/f4t.bmp / enlarged_images/B/f4n.bmp,,,1.0035441666841507,[,fNTi
83.0,ITI,ITI,,,0.5523287917021662,,
83.0,Fixation,+,,,2.50323324999772,,
84.0,Fixation,+,,,0.5048480416298844,,
84.0,Display Faces,enlarged_images/B/f1n.bmp / enlarged_images/B/f1n.bmp,,,0.5041034165769815,[,fNTc
84.0,Display Faces,enlarged_images/B/f1n.bmp / enlarged_images/B/f1n.bmp,,,1.0039089583442546,[,fNTc
84.0,ITI,ITI,,,0.7062111250124872,,
84.0,Fixation,+,,,2.5025726666790433,,
85.0,Fixation,+,,,0.5044998749508522,,
85.0,Display Faces,enlarged_images/B/m5t.bmp / enlarged_images/B/m5n.bmp,,,0.5037027084035799,[,mNTi
85.0,Display Faces,enlarged_images/B/m5t.bmp / enlarged_images/B/m5n.bmp,,,1.0039589583175257,[,mNTi
85.0,ITI,ITI,,,0.4524509583134204,,
85.0,Fixation,+,,,2.502700916666072,,
86.0,Fixation,+,,,0.5051395000191405,,
86.0,Display Faces,enlarged_images/B/f3n.bmp / enlarged_images/B/f3n.bmp,,,0.5044303332688287,[,fNTc
86.0,Display Faces,enlarged_images/B/f3n.bmp / enlarged_images/B/f3n.bmp,,,1.0035370833356865,[,fNTc
86.0,ITI,ITI,,,0.2527947917114943,,
86.0,Fixation,+,,,2.5030062916339375,,
87.0,Fixation,+,,,0.5043367082835175,,
87.0,Display Faces,enlarged_images/B/m4t.bmp / enlarged_images/B/m4n.bmp,,,0.5041293333051726,[,mNTi
87.0,Display Faces,enlarged_images/B/m4t.bmp / enlarged_images/B/m4n.bmp,,,1.0034665833809413,[,mNTi
87.0,ITI,ITI,,,0.5531199167016894,,
87.0,Fixation,+,,,2.5033697083126754,,
88.0,Fixation,+,,,0.5043320833938196,,
88.0,Display Faces,enlarged_images/B/f4n.bmp / enlarged_images/B/f4n.bmp,,,0.5038297917344607,[,mNTc
88.0,Display Faces,enlarged_images/B/f4n.bmp / enlarged_images/B/f4n.bmp,,,1.0042139167198911,[,mNTc
88.0,ITI,ITI,,,0.5782472082646564,,
88.0,Fixation,+,,,2.503883083292749,,
89.0,Fixation,+,,,0.5062523749656975,,
89.0,Display Faces,enlarged_images/B/f2n.bmp / enlarged_images/B/f2n.bmp,,,0.5040638750069775,[,mNTc
89.0,Display Faces,enlarged_images/B/f2n.bmp / enlarged_images/B/f2n.bmp,,,1.0033639166504145,[,mNTc
89.0,ITI,ITI,,,0.3783843749552034,,
89.0,Fixation,+,,,2.5032152917119674,,
90.0,Fixation,+,,,0.5046750417095609,,
90.0,Display Faces,enlarged_images/B/f5n.bmp / enlarged_images/B/f5n.bmp,,,0.5057487500016578,[,mNTc
90.0,Display Faces,enlarged_images/B/f5n.bmp / enlarged_images/B/f5n.bmp,,,1.004622416687198,[,mNTc
90.0,ITI,ITI,,,0.6275793749955483,,
90.0,Fixation,+,,,2.50345291668782,,
91.0,Fixation,+,,,0.5044727916247211,,
91.0,Display Faces,enlarged_images/B/f3n.bmp / enlarged_images/B/f3n.bmp,,,0.5042891665943898,[,fNTc
91.0,Display Faces,enlarged_images/B/f3n.bmp / enlarged_images/B/f3n.bmp,,,1.0036048333276995,[,fNTc
91.0,ITI,ITI,,,0.4273698333417997,,
91.0,Fixation,+,,,2.5048354166792706,,
92.0,Fixation,+,,,0.5043516667210497,,
92.0,Display Faces,enlarged_images/B/m1t.bmp / enlarged_images/B/m1n.bmp,,,0.5046258333604783,[,mNTi
92.0,Display Faces,enlarged_images/B/m1t.bmp / enlarged_images/B/m1n.bmp,,,1.0042497916147113,[,mNTi
92.0,ITI,ITI,,,0.37748399999691173,,
92.0,Fixation,+,,,2.504509999998845,,
93.0,Fixation,+,,,0.5047624583821744,,
93.0,Display Faces,enlarged_images/B/m3n.bmp / enlarged_images/B/m3t.bmp,,,0.5046010833466426,[,mNTi
93.0,Display Faces,enlarged_images/B/m3n.bmp / enlarged_images/B/m3t.bmp,,,1.0038660416612402,[,mNTi
93.0,ITI,ITI,,,0.5534802916808985,,
93.0,Fixation,+,,,2.503784333297517,,
94.0,Fixation,+,,,0.5044924583053216,,
94.0,Display Faces,enlarged_images/B/f2n.bmp / enlarged_images/B/f2n.bmp,,,0.5042517500114627,[,fNTc
94.0,Display Faces,enlarged_images/B/f2n.bmp / enlarged_images/B/f2n.bmp,,,1.0039187917136587,[,fNTc
94.0,ITI,ITI,,,0.302500499994494,,
94.0,Fixation,+,,,2.5032465833355673,,
95.0,Fixation,+,,,0.5050099166110158,,
95.0,Display Faces,enlarged_images/B/f3n.bmp / enlarged_images/B/f3n.bmp,,,0.5038974583731033,[,fNN
95.0,Display Faces,enlarged_images/B/f3n.bmp / enlarged_images/B/f3n.bmp,,,1.0041516666533425,[,fNN
95.0,ITI,ITI,,,0.6774348333128728,,
95.0,Fixation,+,,,2.5030692916479893,,
96.0,Fixation,+,,,0.5074244583374821,,
96.0,Display Faces,enlarged_images/B/f4n.bmp / enlarged_images/B/f4n.bmp,,,0.5041907916893251,[,mNTc
96.0,Display Faces,enlarged_images/B/f4n.bmp / enlarged_images/B/f4n.bmp,,,1.0044315833365545,[,mNTc
96.0,ITI,ITI,,,0.6273280415916815,,
96.0,Fixation,+,,,2.503039875009563,,
97.0,Fixation,+,,,0.5043788332841359,,
97.0,Display Faces,enlarged_images/B/f4n.bmp / enlarged_images/B/f4n.bmp,,,0.5040929999668151,[,fNN
97.0,Display Faces,enlarged_images/B/f4n.bmp / enlarged_images/B/f4n.bmp,,,1.0045097499969415,[,fNN
97.0,ITI,ITI,,,0.7540333750075661,,
97.0,Fixation,+,,,2.504405374987982,,
98.0,Fixation,+,,,0.5050695833051577,,
98.0,Display Faces,enlarged_images/B/f3n.bmp / enlarged_images/B/f3n.bmp,,,0.504367291694507,[,mNTc
98.0,Display Faces,enlarged_images/B/f3n.bmp / enlarged_images/B/f3n.bmp,,,1.0030534583493136,[,mNTc
98.0,ITI,ITI,,,0.3524535833275877,,
98.0,Fixation,+,,,2.5030806667055003,,
99.0,Fixation,+,,,0.5043849999783561,,
99.0,Display Faces,enlarged_images/B/m2t.bmp / enlarged_images/B/m2n.bmp,,,0.5045975416433066,[,mNTi
99.0,Display Faces,enlarged_images/B/m2t.bmp / enlarged_images/B/m2n.bmp,,,1.0038505416014232,[,mNTi
99.0,ITI,ITI,,,0.6806251666275784,,
99.0,Fixation,+,,,2.502902999985963,,
100.0,Fixation,+,,,0.5045692916610278,,
100.0,Display Faces,enlarged_images/B/m2n.bmp / enlarged_images/B/m2t.bmp,,,0.503853166650515,[,mNTi
100.0,Display Faces,enlarged_images/B/m2n.bmp / enlarged_images/B/m2t.bmp,,,1.003364166652318,[,mNTi
100.0,ITI,ITI,,,0.527073833392933,,
100.0,Fixation,+,,,2.502896999998484,,
101.0,Fixation,+,,,0.504287000047043,,
101.0,Display Faces,enlarged_images/B/m5n.bmp / enlarged_images/B/m5t.bmp,,,0.5035402083303779,[,mNTi
101.0,Display Faces,enlarged_images/B/m5n.bmp / enlarged_images/B/m5t.bmp,,,1.0035107500152662,[,mNTi
101.0,ITI,ITI,,,0.6272649167221971,,
101.0,Fixation,+,,,2.5026365832891315,,
102.0,Fixation,+,,,0.5049976666341536,,
102.0,Display Faces,enlarged_images/B/f5n.bmp / enlarged_images/B/f5n.bmp,,,0.504915458324831,[,mNTc
102.0,Display Faces,enlarged_images/B/f5n.bmp / enlarged_images/B/f5n.bmp,,,1.003693749953527,[,mNTc
102.0,ITI,ITI,,,0.6275327916373499,,
102.0,Fixation,+,,,2.5026744166389108,,
103.0,Fixation,+,,,0.5039617083384655,,
103.0,Display Faces,enlarged_images/B/m2t.bmp / enlarged_images/B/m2n.bmp,,,0.5038139583193697,[,mNTi
103.0,Display Faces,enlarged_images/B/m2t.bmp / enlarged_images/B/m2n.bmp,,,1.0032972499611787,[,mNTi
103.0,ITI,ITI,,,0.5765637917211279,,
103.0,Fixation,+,,,2.5025899165775627,,
104.0,Fixation,+,,,0.5045781250228174,,
104.0,Display Faces,enlarged_images/B/f1n.bmp / enlarged_images/B/f1n.bmp,,,0.5038167500169948,[,fNN
104.0,Display Faces,enlarged_images/B/f1n.bmp / enlarged_images/B/f1n.bmp,,,1.0032701666350476,[,fNN
104.0,ITI,ITI,,,0.6020065000047907,,
104.0,Fixation,+,,,2.502744791621808,,
105.0,Fixation,+,,,0.504288041673135,,
105.0,Display Faces,enlarged_images/B/f4t.bmp / enlarged_images/B/f4n.bmp,,,0.5040041249594651,[,fNTi
105.0,Display Faces,enlarged_images/B/f4t.bmp / enlarged_images/B/f4n.bmp,,,1.0032967082806863,[,fNTi
105.0,ITI,ITI,,,0.32712366664782166,,
105.0,Fixation,+,,,2.5028425834025256,,
106.0,Fixation,+,,,0.5048026666627266,,
106.0,Display Faces,enlarged_images/B/f5t.bmp / enlarged_images/B/f5n.bmp,,,0.5037021249881946,[,fNTi
106.0,Display Faces,enlarged_images/B/f5t.bmp / enlarged_images/B/f5n.bmp,,,1.003098749963101,[,fNTi
106.0,ITI,ITI,,,0.377293124969583,,
106.0,Fixation,+,,,2.5026744166971184,,
107.0,Fixation,+,,,0.5040764166042209,,
107.0,Display Faces,enlarged_images/B/f3t.bmp / enlarged_images/B/f3n.bmp,,,0.5039492083596997,[,fNTi
107.0,Display Faces,enlarged_images/B/f3t.bmp / enlarged_images/B/f3n.bmp,,,1.003080916707404,[,fNTi
107.0,ITI,ITI,,,0.727183083363343,,
107.0,Fixation,+,,,2.502779583388474,,
108.0,Fixation,+,,,0.5048174582771026,,
108.0,Display Faces,enlarged_images/B/f5n.bmp / enlarged_images/B/f5n.bmp,,,0.503946500015445,[,fNN
108.0,Display Faces,enlarged_images/B/f5n.bmp / enlarged_images/B/f5n.bmp,,,1.0036882500280626,[,fNN
108.0,ITI,ITI,,,0.6273358333273791,,
108.0,Fixation,+,,,2.5082718334160745,,
109.0,Fixation,+,,,0.5040660833474249,,
109.0,Display Faces,enlarged_images/B/f5n.bmp / enlarged_images/B/f5n.bmp,,,0.503449791634921,[,fNN
109.0,Display Faces,enlarged_images/B/f5n.bmp / enlarged_images/B/f5n.bmp,,,1.0032245416077785,[,fNN
109.0,ITI,ITI,,,0.27699300000676885,,
109.0,Fixation,+,,,2.5023885416449048,,
110.0,Fixation,+,,,0.5057140833232552,,
110.0,Display Faces,enlarged_images/B/m4n.bmp / enlarged_images/B/m4t.bmp,,,0.5036459583207034,[,mNTi
110.0,Display Faces,enlarged_images/B/m4n.bmp / enlarged_images/B/m4t.bmp,,,1.0033874583314173,[,mNTi
110.0,ITI,ITI,,,0.27694424998480827,,
110.0,Fixation,+,,,2.502485874982085,,
111.0,Fixation,+,,,0.504751666681841,,
111.0,Display Faces,enlarged_images/B/m1n.bmp / enlarged_images/B/m1n.bmp,,,0.5036524583119899,[,mNN
111.0,Display Faces,enlarged_images/B/m1n.bmp / enlarged_images/B/m1n.bmp,,,1.0037427499773912,[,mNN
111.0,ITI,ITI,,,0.3023960000136867,,
111.0,Fixation,+,,,2.5027166249928996,,
112.0,Fixation,+,,,0.504767166741658,,
112.0,Display Faces,enlarged_images/B/f2n.bmp / enlarged_images/B/f2n.bmp,,,0.5037154167075641,[,fNTc
112.0,Display Faces,enlarged_images/B/f2n.bmp / enlarged_images/B/f2n.bmp,,,1.0034803333692253,[,fNTc
112.0,ITI,ITI,,,0.5521220833179541,,
112.0,Fixation,+,,,2.502385541680269,,
113.0,Fixation,+,,,0.5042617917060852,,
113.0,Display Faces,enlarged_images/B/m2n.bmp / enlarged_images/B/m2n.bmp,,,0.5036533750244416,[,mNN
113.0,Display Faces,enlarged_images/B/m2n.bmp / enlarged_images/B/m2n.bmp,,,1.0033623750205152,[,mNN
113.0,ITI,ITI,,,0.7269879999803379,,
113.0,Fixation,+,,,2.5031522500212304,,
114.0,Fixation,+,,,0.5043005417101085,,
114.0,Display Faces,enlarged_images/B/f5n.bmp / enlarged_images/B/f5n.bmp,,,0.5036448750179261,[,fNN
114.0,Display Faces,enlarged_images/B/f5n.bmp / enlarged_images/B/f5n.bmp,,,1.0031460000318475,[,fNN
114.0,ITI,ITI,,,0.7275649583898485,,
114.0,Fixation,+,,,2.5030239166808315,,
115.0,Fixation,+,,,0.5050854166620411,,
115.0,Display Faces,enlarged_images/B/m1n.bmp / enlarged_images/B/m1t.bmp,,,0.5039423332782462,[,mNTi
115.0,Display Faces,enlarged_images/B/m1n.bmp / enlarged_images/B/m1t.bmp,,,1.003251291695051,[,mNTi
115.0,ITI,ITI,,,0.42699858330888674,,
115.0,Fixation,+,,,2.502669708279427,,
116.0,Fixation,+,,,0.5044656665995717,,
116.0,Display Faces,enlarged_images/B/f4n.bmp / enlarged_images/B/f4n.bmp,,,0.5036560416920111,[,mNTc
116.0,Display Faces,enlarged_images/B/f4n.bmp / enlarged_images/B/f4n.bmp,,,1.0036085832980461,[,mNTc
116.0,ITI,ITI,,,0.35200008342508227,,
116.0,Fixation,+,,,2.502758500049822,,
117.0,Fixation,+,,,0.5043567916727625,,
117.0,Display Faces,enlarged_images/B/m2n.bmp / enlarged_images/B/m2n.bmp,,,0.5036235416773707,[,mNN
117.0,Display Faces,enlarged_images/B/m2n.bmp / enlarged_images/B/m2n.bmp,,,1.0035039999638684,[,mNN
117.0,ITI,ITI,,,0.5771895833313465,,
117.0,Fixation,+,,,2.5024124999763444,,
118.0,Fixation,+,,,0.5043085416546091,,
118.0,Display Faces,enlarged_images/B/f3t.bmp / enlarged_images/B/f3n.bmp,,,0.5037436666898429,[,fNTi
118.0,Display Faces,enlarged_images/B/f3t.bmp / enlarged_images/B/f3n.bmp,,,1.0029800416668877,[,fNTi
118.0,ITI,ITI,,,0.6022243333281949,,
118.0,Fixation,+,,,2.502749875013251,,
119.0,Fixation,+,,,0.5042997500277124,,
119.0,Display Faces,enlarged_images/B/f3n.bmp / enlarged_images/B/f3n.bmp,,,0.5034858749713749,[,mNTc
119.0,Display Faces,enlarged_images/B/f3n.bmp / enlarged_images/B/f3n.bmp,,,1.003259374992922,[,mNTc
119.0,ITI,ITI,,,0.3020339166978374,,
119.0,Fixation,+,,,2.503003583289683,,
120.0,Fixation,+,,,0.5043208333081566,,
120.0,Display Faces,enlarged_images/B/f5t.bmp / enlarged_images/B/f5n.bmp,,,0.5035755000426434,[,fNTi
120.0,Display Faces,enlarged_images/B/f5t.bmp / enlarged_images/B/f5n.bmp,,,1.0030792499892414,[,fNTi
120.0,ITI,ITI,,,0.7270696249906905,,
120.0,Fixation,+,,,2.502355708333198,,
,REST,Please Rest,,,40.812846624990925,,
1.0,Fixation,+,,,0.5054407083662227,,
1.0,Display Faces,enlarged_images/B/m1n.bmp / enlarged_images/B/m1t.bmp,,,0.5037543749785982,[,mNTi
1.0,Display Faces,enlarged_images/B/m1n.bmp / enlarged_images/B/m1t.bmp,,,1.003456374979578,[,mNTi
1.0,ITI,ITI,,,0.7271457083988935,,
1.0,Fixation,+,,,2.5027774582849815,,
2.0,Fixation,+,,,0.5041820000042208,,
2.0,Display Faces,enlarged_images/B/f4n.bmp / enlarged_images/B/f4n.bmp,,,0.503778166603297,[,fNTc
2.0,Display Faces,enlarged_images/B/f4n.bmp / enlarged_images/B/f4n.bmp,,,1.0036510833306238,[,fNTc
2.0,ITI,ITI,,,0.30911699996795505,,
2.0,Fixation,+,,,2.50334558339091,,
3.0,Fixation,+,,,0.5083749166806228,,
3.0,Display Faces,enlarged_images/B/f1n.bmp / enlarged_images/B/f1n.bmp,,,0.5040458333096467,[,fNN
3.0,Display Faces,enlarged_images/B/f1n.bmp / enlarged_images/B/f1n.bmp,,,1.00348145829048,[,fNN
3.0,ITI,ITI,,,0.35248595831217244,,
3.0,Fixation,+,,,2.502678166667465,,
4.0,Fixation,+,,,0.504168750019744,,
4.0,Display Faces,enlarged_images/B/f2n.bmp / enlarged_images/B/f2n.bmp,,,0.5037567083491012,[,fNN
4.0,Display Faces,enlarged_images/B/f2n.bmp / enlarged_images/B/f2n.bmp,,,1.0031449582893401,[,fNN
4.0,ITI,ITI,,,0.3523195416200906,,
4.0,Fixation,+,,,2.5025532083236612,,
5.0,Fixation,+,,,0.5045636667055078,,
5.0,Display Faces,enlarged_images/B/f1n.bmp / enlarged_images/B/f1n.bmp,,,0.5037134583690204,[,fNTc
5.0,Display Faces,enlarged_images/B/f1n.bmp / enlarged_images/B/f1n.bmp,,,1.003432666650042,[,fNTc
5.0,ITI,ITI,,,0.4525155833689496,,
5.0,Fixation,+,,,2.5031446666107513,,
6.0,Fixation,+,,,0.5042069166665897,,
6.0,Display Faces,enlarged_images/B/m3n.bmp / enlarged_images/B/m3n.bmp,,,0.5037105833180249,[,mNN
6.0,Display Faces,enlarged_images/B/m3n.bmp / enlarged_images/B/m3n.bmp,,,1.003584583348129,[,mNN
6.0,ITI,ITI,,,0.6273122082930058,,
6.0,Fixation,+,,,2.502325583307538,,
7.0,Fixation,+,,,0.5044090000446886,,
7.0,Display Faces,enlarged_images/B/m3n.bmp / enlarged_images/B/m3n.bmp,,,0.5036865416914225,[,mNN
7.0,Display Faces,enlarged_images/B/m3n.bmp / enlarged_images/B/m3n.bmp,,,1.0037040417082608,[,mNN
7.0,ITI,ITI,,,0.7022647083504125,,
7.0,Fixation,+,,,2.5023433749447577,,
8.0,Fixation,+,,,0.5040680000092834,,
8.0,Display Faces,enlarged_images/B/f3t.bmp / enlarged_images/B/f3n.bmp,,,0.5036411249893717,[,fNTi
8.0,Display Faces,enlarged_images/B/f3t.bmp / enlarged_images/B/f3n.bmp,,,1.0038635000237264,[,fNTi
8.0,ITI,ITI,,,0.6022533333161846,,
8.0,Fixation,+,,,2.5024656666792,,
9.0,Fixation,+,,,0.5043717083754018,,
9.0,Display Faces,enlarged_images/B/f2t.bmp / enlarged_images/B/f2n.bmp,,,0.5035343749914318,[,fNTi
9.0,Display Faces,enlarged_images/B/f2t.bmp / enlarged_images/B/f2n.bmp,,,1.0034537083120085,[,fNTi
9.0,ITI,ITI,,,0.5272737499908544,,
9.0,Fixation,+,,,2.502718041650951,,
10.0,Fixation,+,,,0.504311291675549,,
10.0,Display Faces,enlarged_images/B/m4n.bmp / enlarged_images/B/m4n.bmp,,,0.5037055832799524,[,mNN
10.0,Display Faces,enlarged_images/B/m4n.bmp / enlarged_images/B/m4n.bmp,,,1.0037516666925512,[,mNN
10.0,ITI,ITI,,,0.5272862917045131,,
10.0,Fixation,+,,,2.5026074166526087,,
11.0,Fixation,+,,,0.5046505416976288,,
11.0,Display Faces,enlarged_images/B/m4n.bmp / enlarged_images/B/m4t.bmp,,,0.5036994583206251,[,mNTi
11.0,Display Faces,enlarged_images/B/m4n.bmp / enlarged_images/B/m4t.bmp,,,1.0033377916552126,[,mNTi
11.0,ITI,ITI,,,0.30192137497942895,,
11.0,Fixation,+,,,2.502211791696027,,
12.0,Fixation,+,,,0.5042515000095591,,
12.0,Display Faces,enlarged_images/B/f3n.bmp / enlarged_images/B/f3n.bmp,,,0.5036334582837299,[,mNTc
12.0,Display Faces,enlarged_images/B/f3n.bmp / enlarged_images/B/f3n.bmp,,,1.0035139999818057,[,mNTc
12.0,ITI,ITI,,,0.40227608336135745,,
12.0,Fixation,+,,,2.5024364166893065,,
13.0,Fixation,+,,,0.5044404999935068,,
13.0,Display Faces,enlarged_images/B/f1n.bmp / enlarged_images/B/f1n.bmp,,,0.5036494166706689,[,fNTc
13.0,Display Faces,enlarged_images/B/f1n.bmp / enlarged_images/B/f1n.bmp,,,1.004027999995742,[,fNTc
13.0,ITI,ITI,,,0.652233291650191,,
13.0,Fixation,+,,,2.5025824583135545,,
14.0,Fixation,+,,,0.5042366666602902,,
14.0,Display Faces,enlarged_images/B/f2n.bmp / enlarged_images/B/f2n.bmp,,,0.5035757499863394,[,fNN
14.0,Display Faces,enlarged_images/B/f2n.bmp / enlarged_images/B/f2n.bmp,,,1.0035398332984187,[,fNN
14.0,ITI,ITI,,,0.47714479168644175,,
14.0,Fixation,+,,,2.5022526249522343,,
15.0,Fixation,+,,,0.5047883749939501,,
15.0,Display Faces,enlarged_images/B/m2n.bmp / enlarged_images/B/m2t.bmp,,,0.5037384167080745,[,mNTi
15.0,Display Faces,enlarged_images/B/m2n.bmp / enlarged_images/B/m2t.bmp,,,1.0034764583106153,[,mNTi
15.0,ITI,ITI,,,0.32738133327802643,,
15.0,Fixation,+,,,2.502478250011336,,
16.0,Fixation,+,,,0.5047007500543259,,
16.0,Display Faces,enlarged_images/B/f1n.bmp / enlarged_images/B/f1n.bmp,,,0.5035955000203103,[,mNTc
16.0,Display Faces,enlarged_images/B/f1n.bmp / enlarged_images/B/f1n.bmp,,,1.0035664582974277,[,mNTc
16.0,ITI,ITI,,,0.42712520831264555,,
16.0,Fixation,+,,,2.5023012083838694,,
17.0,Fixation,+,,,0.5046030833618715,,
17.0,Display Faces,enlarged_images/B/m5t.bmp / enlarged_images/B/m5n.bmp,,,0.5039681250345893,[,mNTi
17.0,Display Faces,enlarged_images/B/m5t.bmp / enlarged_images/B/m5n.bmp,,,1.0035481249797158,[,mNTi
17.0,ITI,ITI,,,0.7522055000299588,,
17.0,Fixation,+,,,2.502371208393015,,
18.0,Fixation,+,,,0.5042472499771975,,
18.0,Display Faces,enlarged_images/B/f1n.bmp / enlarged_images/B/f1n.bmp,,,0.5038651666836813,[,mNTc
18.0,Display Faces,enlarged_images/B/f1n.bmp / enlarged_images/B/f1n.bmp,,,1.0036719582858495,[,mNTc
18.0,ITI,ITI,,,0.37722699996083975,,
18.0,Fixation,+,,,2.5031118749757297,,
19.0,Fixation,+,,,0.5045681250048801,,
19.0,Display Faces,enlarged_images/B/m5n.bmp / enlarged_images/B/m5n.bmp,,,0.5039657916058786,[,mNN
19.0,Display Faces,enlarged_images/B/m5n.bmp / enlarged_images/B/m5n.bmp,,,1.0034027916844934,[,mNN
19.0,ITI,ITI,,,0.6273667499772273,,
19.0,Fixation,+,,,2.5024323333636858,,
20.0,Fixation,+,,,0.5037639166112058,,
20.0,Display Faces,enlarged_images/B/m4n.bmp / enlarged_images/B/m4t.bmp,,,0.5038108333246782,[,mNTi
20.0,Display Faces,enlarged_images/B/m4n.bmp / enlarged_images/B/m4t.bmp,,,1.003112250007689,[,mNTi
20.0,ITI,ITI,,,0.6022390417056158,,
20.0,Fixation,+,,,2.5025466666556895,,
21.0,Fixation,+,,,0.5042879583779722,,
21.0,Display Faces,enlarged_images/B/f2n.bmp / enlarged_images/B/f2n.bmp,,,0.5036617916775867,[,fNTc
21.0,Display Faces,enlarged_images/B/f2n.bmp / enlarged_images/B/f2n.bmp,,,1.0036967500345781,[,fNTc
21.0,ITI,ITI,,,0.602452083316166,,
21.0,Fixation,+,,,2.5026429999852553,,
22.0,Fixation,+,,,0.5038679166464135,,
22.0,Display Faces,enlarged_images/B/f4n.bmp / enlarged_images/B/f4n.bmp,,,0.5035841666976921,[,fNN
22.0,Display Faces,enlarged_images/B/f4n.bmp / enlarged_images/B/f4n.bmp,,,1.0033565000048839,[,fNN
22.0,ITI,ITI,,,0.45214058336568996,,
22.0,Fixation,+,,,2.5023363333311863,,
23.0,Fixation,+,,,0.5042027500458062,,
23.0,Display Faces,enlarged_images/B/m1t.bmp / enlarged_images/B/m1n.bmp,,,0.5041905416292138,[,mNTi
23.0,Display Faces,enlarged_images/B/m1t.bmp / enlarged_images/B/m1n.bmp,,,1.0033376249484718,[,mNTi
23.0,ITI,ITI,,,0.2771605832967907,,
23.0,Fixation,+,,,2.5028088333201595,,
24.0,Fixation,+,,,0.5043418333516456,,
24.0,Display Faces,enlarged_images/B/f4n.bmp / enlarged_images/B/f4t.bmp,,,0.5037525417283177,[,fNTi
24.0,Display Faces,enlarged_images/B/f4n.bmp / enlarged_images/B/f4t.bmp,,,1.0029585832962766,[,fNTi
24.0,ITI,ITI,,,0.3773215417168103,,
24.0,Fixation,+,,,2.502585999958683,,
25.0,Fixation,+,,,0.5045488749747165,,
25.0,Display Faces,enlarged_images/B/m4t.bmp / enlarged_images/B/m4n.bmp,,,0.5037879166193306,[,mNTi
25.0,Display Faces,enlarged_images/B/m4t.bmp / enlarged_images/B/m4n.bmp,,,1.003150958335027,[,mNTi
25.0,ITI,ITI,,,0.2523278333246708,,
25.0,Fixation,+,,,2.502531750011258,,
26.0,Fixation,+,,,0.5038743749610148,,
26.0,Display Faces,enlarged_images/B/f2n.bmp / enlarged_images/B/f2n.bmp,,,0.5041273750248365,[,mNTc
26.0,Display Faces,enlarged_images/B/f2n.bmp / enlarged_images/B/f2n.bmp,,,1.003446958377026,[,mNTc
26.0,ITI,ITI,,,0.25210949999745935,,
26.0,Fixation,+,,,2.502223291725386,,
27.0,Fixation,+,,,0.5039027917082421,,
27.0,Display Faces,enlarged_images/B/f5n.bmp / enlarged_images/B/f5n.bmp,,,0.5038250833167695,[,fNTc
27.0,Display Faces,enlarged_images/B/f5n.bmp / enlarged_images/B/f5n.bmp,,,1.003062833333388,[,fNTc
27.0,ITI,ITI,,,0.3023256250307895,,
27.0,Fixation,+,,,2.5026209166971967,,
28.0,Fixation,+,,,0.5043074582936242,,
28.0,Display Faces,enlarged_images/B/f5n.bmp / enlarged_images/B/f5n.bmp,,,0.5037003749748692,[,fNTc
28.0,Display Faces,enlarged_images/B/f5n.bmp / enlarged_images/B/f5n.bmp,,,1.0031152915908024,[,fNTc
28.0,ITI,ITI,,,0.5271077083307318,,
28.0,Fixation,+,,,2.502308666706085,,
29.0,Fixation,+,,,0.5042132916860282,,
29.0,Display Faces,enlarged_images/B/f4n.bmp / enlarged_images/B/f4n.bmp,,,0.5035582083510235,[,mNTc
29.0,Display Faces,enlarged_images/B/f4n.bmp / enlarged_images/B/f4n.bmp,,,1.003450458345469,[,mNTc
29.0,ITI,ITI,,,0.27756983338622376,,
29.0,Fixation,+,,,2.5024166249786504,,
30.0,Fixation,+,,,0.504107250017114,,
30.0,Display Faces,enlarged_images/B/m3n.bmp / enlarged_images/B/m3t.bmp,,,0.5041538749937899,[,mNTi
30.0,Display Faces,enlarged_images/B/m3n.bmp / enlarged_images/B/m3t.bmp,,,1.0036282499786466,[,mNTi
30.0,ITI,ITI,,,0.5771901666885242,,
30.0,Fixation,+,,,2.5023405833053403,,
31.0,Fixation,+,,,0.5040275416104123,,
31.0,Display Faces,enlarged_images/B/f1n.bmp / enlarged_images/B/f1n.bmp,,,0.5041840000194497,[,fNTc
31.0,Display Faces,enlarged_images/B/f1n.bmp / enlarged_images/B/f1n.bmp,,,1.0035434582969174,[,fNTc
31.0,ITI,ITI,,,0.6271694166935049,,
31.0,Fixation,+,,,2.503146958304569,,
32.0,Fixation,+,,,0.5040670832968317,,
32.0,Display Faces,enlarged_images/B/m4n.bmp / enlarged_images/B/m4n.bmp,,,0.5038801250047982,[,mNN
32.0,Display Faces,enlarged_images/B/m4n.bmp / enlarged_images/B/m4n.bmp,,,1.0032221250003204,[,mNN
32.0,ITI,ITI,,,0.6020874166861176,,
32.0,Fixation,+,,,2.5023225833429024,,
33.0,Fixation,+,,,0.5038191666826606,,
33.0,Display Faces,enlarged_images/B/f2n.bmp / enlarged_images/B/f2n.bmp,,,0.5038916249759495,[,fNTc
33.0,Display Faces,enlarged_images/B/f2n.bmp / enlarged_images/B/f2n.bmp,,,1.0030667916871607,[,fNTc
33.0,ITI,ITI,,,0.40223895834060386,,
33.0,Fixation,+,,,2.5025211666943505,,
34.0,Fixation,+,,,0.5033256249735132,,
34.0,Display Faces,enlarged_images/B/f1n.bmp / enlarged_images/B/f1n.bmp,,,0.5037442083121277,[,fNN
34.0,Display Faces,enlarged_images/B/f1n.bmp / enlarged_images/B/f1n.bmp,,,1.003685208328534,[,fNN
34.0,ITI,ITI,,,0.32751875004032627,,
34.0,Fixation,+,,,2.50270158337662,,
35.0,Fixation,+,,,0.5037246249848977,,
35.0,Display Faces,enlarged_images/B/m3n.bmp / enlarged_images/B/m3n.bmp,,,0.5037202499806881,[,mNN
35.0,Display Faces,enlarged_images/B/m3n.bmp / enlarged_images/B/m3n.bmp,,,1.0032286666682921,[,mNN
35.0,ITI,ITI,,,0.5771826250129379,,
35.0,Fixation,+,,,2.5028679166571237,,
36.0,Fixation,+,,,0.5035930833546445,,
36.0,Display Faces,enlarged_images/B/m3n.bmp / enlarged_images/B/m3t.bmp,,,0.5034106666571461,[,mNTi
36.0,Display Faces,enlarged_images/B/m3n.bmp / enlarged_images/B/m3t.bmp,,,1.003627041587606,[,mNTi
36.0,ITI,ITI,,,0.6771542499773204,,
36.0,Fixation,+,,,2.5027332499739714,,
37.0,Fixation,+,,,0.503981291607488,,
37.0,Display Faces,enlarged_images/B/f5n.bmp / enlarged_images/B/f5n.bmp,,,0.5039543750463054,[,fNN
37.0,Display Faces,enlarged_images/B/f5n.bmp / enlarged_images/B/f5n.bmp,,,1.003113041690085,[,fNN
37.0,ITI,ITI,,,0.42732287500984967,,
37.0,Fixation,+,,,2.5032662916346453,,
38.0,Fixation,+,,,0.5037042500334792,,
38.0,Display Faces,enlarged_images/B/f1n.bmp / enlarged_images/B/f1n.bmp,,,0.5036977917188779,[,fNN
38.0,Display Faces,enlarged_images/B/f1n.bmp / enlarged_images/B/f1n.bmp,,,1.0031418333528563,[,fNN
38.0,ITI,ITI,,,0.677127750008367,,
38.0,Fixation,+,,,2.50227175001055,,
39.0,Fixation,+,,,0.5039668749668635,,
39.0,Display Faces,enlarged_images/B/f4n.bmp / enlarged_images/B/f4n.bmp,,,0.5035746666835621,[,fNN
39.0,Display Faces,enlarged_images/B/f4n.bmp / enlarged_images/B/f4n.bmp,,,1.003814416588284,[,fNN
39.0,ITI,ITI,,,0.25230408331844956,,
39.0,Fixation,+,,,2.5024714166647755,,
40.0,Fixation,+,,,0.5045185000053607,,
40.0,Display Faces,enlarged_images/B/m4n.bmp / enlarged_images/B/m4n.bmp,,,0.5035107916919515,[,mNN
40.0,Display Faces,enlarged_images/B/m4n.bmp / enlarged_images/B/m4n.bmp,,,1.0036109166685492,[,mNN
40.0,ITI,ITI,,,0.4021185417077504,,
40.0,Fixation,+,,,2.5025638333172537,,
41.0,Fixation,+,,,0.5043827500194311,,
41.0,Display Faces,enlarged_images/B/f1t.bmp / enlarged_images/B/f1n.bmp,,,0.5035371250123717,[,fNTi
41.0,Display Faces,enlarged_images/B/f1t.bmp / enlarged_images/B/f1n.bmp,,,1.0033877083915286,[,fNTi
41.0,ITI,ITI,,,0.7020759583101608,,
41.0,Fixation,+,,,2.5022653749911115,,
42.0,Fixation,+,,,0.5040742916753516,,
42.0,Display Faces,enlarged_images/B/m5t.bmp / enlarged_images/B/m5n.bmp,,,0.5037500000325963,[,mNTi
42.0,Display Faces,enlarged_images/B/m5t.bmp / enlarged_images/B/m5n.bmp,,,1.0034405832993798,[,mNTi
42.0,ITI,ITI,,,0.5274344583740458,,
42.0,Fixation,+,,,2.5026501666288823,,
43.0,Fixation,+,,,0.503786624991335,,
43.0,Display Faces,enlarged_images/B/f2t.bmp / enlarged_images/B/f2n.bmp,,,0.5037151667056605,[,fNTi
43.0,Display Faces,enlarged_images/B/f2t.bmp / enlarged_images/B/f2n.bmp,,,1.0035007916740142,[,fNTi
43.0,ITI,ITI,,,0.7521291250013746,,
43.0,Fixation,+,,,2.502954041643534,,
44.0,Fixation,+,,,0.5051939583499916,,
44.0,Display Faces,enlarged_images/B/f1n.bmp / enlarged_images/B/f1t.bmp,,,0.5040528333629481,[,fNTi
44.0,Display Faces,enlarged_images/B/f1n.bmp / enlarged_images/B/f1t.bmp,,,1.0031669583404437,[,fNTi
44.0,ITI,ITI,,,0.3270993333426304,,
44.0,Fixation,+,,,2.502717958355788,,
45.0,Fixation,+,,,0.5036423749988899,,
45.0,Display Faces,enlarged_images/B/f3n.bmp / enlarged_images/B/f3n.bmp,,,0.5037526667001657,[,fNTc
45.0,Display Faces,enlarged_images/B/f3n.bmp / enlarged_images/B/f3n.bmp,,,1.0029886666452512,[,fNTc
45.0,ITI,ITI,,,0.37730204162653536,,
45.0,Fixation,+,,,2.5026643333258107,,
46.0,Fixation,+,,,0.5039075833046809,,
46.0,Display Faces,enlarged_images/B/m2n.bmp / enlarged_images/B/m2n.bmp,,,0.5035300416639075,[,mNN
46.0,Display Faces,enlarged_images/B/m2n.bmp / enlarged_images/B/m2n.bmp,,,1.003083041694481,[,mNN
46.0,ITI,ITI,,,0.5520820416277274,,
46.0,Fixation,+,,,2.502656583325006,,
47.0,Fixation,+,,,0.5044622916611843,,
47.0,Display Faces,enlarged_images/B/m3t.bmp / enlarged_images/B/m3n.bmp,,,0.5039433750207536,[,mNTi
47.0,Display Faces,enlarged_images/B/m3t.bmp / enlarged_images/B/m3n.bmp,,,1.0035850416170433,[,mNTi
47.0,ITI,ITI,,,0.4521642082836479,,
47.0,Fixation,+,,,2.5024450833443552,,
48.0,Fixation,+,,,0.5044570832978934,,
48.0,Display Faces,enlarged_images/B/f3n.bmp / enlarged_images/B/f3n.bmp,,,0.5036271249991842,[,fNTc
48.0,Display Faces,enlarged_images/B/f3n.bmp / enlarged_images/B/f3n.bmp,,,1.003546499996446,[,fNTc
48.0,ITI,ITI,,,0.45230162504594773,,
48.0,Fixation,+,,,2.5023539166431874,,
49.0,Fixation,+,,,0.5042837500222959,,
49.0,Display Faces,enlarged_images/B/m4n.bmp / enlarged_images/B/m4n.bmp,,,0.5036842083209194,[,mNN
49.0,Display Faces,enlarged_images/B/m4n.bmp / enlarged_images/B/m4n.bmp,,,1.0037769166519865,[,mNN
49.0,ITI,ITI,,,0.5773768750368617,,
49.0,Fixation,+,,,2.5031522916979156,,
50.0,Fixation,+,,,0.504149500047788,,
50.0,Display Faces,enlarged_images/B/f2n.bmp / enlarged_images/B/f2n.bmp,,,0.503510374983307,[,mNTc
50.0,Display Faces,enlarged_images/B/f2n.bmp / enlarged_images/B/f2n.bmp,,,1.003468583279755,[,mNTc
50.0,ITI,ITI,,,0.7272223333129659,,
50.0,Fixation,+,,,2.502630999952089,,
51.0,Fixation,+,,,0.5043190833530389,,
51.0,Display Faces,enlarged_images/B/f3t.bmp / enlarged_images/B/f3n.bmp,,,0.5036873333156109,[,fNTi
51.0,Display Faces,enlarged_images/B/f3t.bmp / enlarged_images/B/f3n.bmp,,,1.0033109583309852,[,fNTi
51.0,ITI,ITI,,,0.477201875008177,,
51.0,Fixation,+,,,2.502296791644767,,
52.0,Fixation,+,,,0.5040729999891482,,
52.0,Display Faces,enlarged_images/B/f1n.bmp / enlarged_images/B/f1n.bmp,,,0.50347583333496,[,fNN
52.0,Display Faces,enlarged_images/B/f1n.bmp / enlarged_images/B/f1n.bmp,,,1.0038070416776463,[,fNN
52.0,ITI,ITI,,,0.6523426666972227,,
52.0,Fixation,+,,,2.502243875002023,,
53.0,Fixation,+,,,0.5043129166588187,,
53.0,Display Faces,enlarged_images/B/f2n.bmp / enlarged_images/B/f2n.bmp,,,0.5036039166734554,[,mNTc
53.0,Display Faces,enlarged_images/B/f2n.bmp / enlarged_images/B/f2n.bmp,,,1.0033645416842774,[,mNTc
53.0,ITI,ITI,,,0.6275517499889247,,
53.0,Fixation,+,,,2.5024515833938494,,
54.0,Fixation,+,,,0.5037599166971631,,
54.0,Display Faces,enlarged_images/B/m2t.bmp / enlarged_images/B/m2n.bmp,,,0.5039332083542831,[,mNTi
54.0,Display Faces,enlarged_images/B/m2t.bmp / enlarged_images/B/m2n.bmp,,,1.0034028333611786,[,mNTi
54.0,ITI,ITI,,,0.2522774165845476,,
54.0,Fixation,+,,,2.5022603750112467,,
55.0,Fixation,+,,,0.5046057082945481,,
55.0,Display Faces,enlarged_images/B/f5n.bmp / enlarged_images/B/f5t.bmp,,,0.5034687916049734,[,fNTi
55.0,Display Faces,enlarged_images/B/f5n.bmp / enlarged_images/B/f5t.bmp,,,1.0082274583983235,[,fNTi
55.0,ITI,ITI,,,0.4025072500226088,,
55.0,Fixation,+,,,2.5027617082814686,,
56.0,Fixation,+,,,0.5041219583363272,,
56.0,Display Faces,enlarged_images/B/f4t.bmp / enlarged_images/B/f4n.bmp,,,0.5039454583311453,[,fNTi
56.0,Display Faces,enlarged_images/B/f4t.bmp / enlarged_images/B/f4n.bmp,,,1.0030108750215732,[,fNTi
56.0,ITI,ITI,,,0.277285166666843,,
56.0,Fixation,+,,,2.5025032082921825,,
57.0,Fixation,+,,,0.5048774583847262,,
57.0,Display Faces,enlarged_images/B/f5n.bmp / enlarged_images/B/f5n.bmp,,,0.5037527500535361,[,fNN
57.0,Display Faces,enlarged_images/B/f5n.bmp / enlarged_images/B/f5n.bmp,,,1.0029927083523944,[,fNN
57.0,ITI,ITI,,,0.2773047083755955,,
57.0,Fixation,+,,,2.5028856666758657,,
58.0,Fixation,+,,,0.5039986249757931,,
58.0,Display Faces,enlarged_images/B/f3n.bmp / enlarged_images/B/f3n.bmp,,,0.5034636666532606,[,fNN
58.0,Display Faces,enlarged_images/B/f3n.bmp / enlarged_images/B/f3n.bmp,,,1.0029161666170694,[,fNN
58.0,ITI,ITI,,,0.2521462916629389,,
58.0,Fixation,+,,,2.5023036667262204,,
59.0,Fixation,+,,,0.5051630833186209,,
59.0,Display Faces,enlarged_images/B/f1n.bmp / enlarged_images/B/f1n.bmp,,,0.5041775000281632,[,mNTc
59.0,Display Faces,enlarged_images/B/f1n.bmp / enlarged_images/B/f1n.bmp,,,1.0029660416767001,[,mNTc
59.0,ITI,ITI,,,0.37726583337644115,,
59.0,Fixation,+,,,2.5025516250170767,,
60.0,Fixation,+,,,0.504353208350949,,
60.0,Display Faces,enlarged_images/B/f2n.bmp / enlarged_images/B/f2n.bmp,,,0.5042688333196566,[,fNTc
60.0,Display Faces,enlarged_images/B/f2n.bmp / enlarged_images/B/f2n.bmp,,,1.003635250031948,[,fNTc
60.0,ITI,ITI,,,0.30244866671273485,,
60.0,Fixation,+,,,2.502330208371859,,
61.0,Fixation,+,,,0.5040560833294876,,
61.0,Display Faces,enlarged_images/B/f4n.bmp / enlarged_images/B/f4n.bmp,,,0.5040093749994412,[,mNTc
61.0,Display Faces,enlarged_images/B/f4n.bmp / enlarged_images/B/f4n.bmp,,,1.0033411666518077,[,mNTc
61.0,ITI,ITI,,,0.5770889583509415,,
61.0,Fixation,+,,,2.5027701249928214,,
62.0,Fixation,+,,,0.5041870416607708,,
62.0,Display Faces,enlarged_images/B/m2n.bmp / enlarged_images/B/m2t.bmp,,,0.5038709583459422,[,mNTi
62.0,Display Faces,enlarged_images/B/m2n.bmp / enlarged_images/B/m2t.bmp,,,1.0031117916223593,[,mNTi
62.0,ITI,ITI,,,0.651868041662965,,
62.0,Fixation,+,,,2.502661291626282,,
63.0,Fixation,+,,,0.5046358749968931,,
63.0,Display Faces,enlarged_images/B/m1n.bmp / enlarged_images/B/m1n.bmp,,,0.5042090832721442,[,mNN
63.0,Display Faces,enlarged_images/B/m1n.bmp / enlarged_images/B/m1n.bmp,,,1.0037113333819434,[,mNN
63.0,ITI,ITI,,,0.3522431666497141,,
63.0,Fixation,+,,,2.5028159166686237,,
64.0,Fixation,+,,,0.5042337916092947,,
64.0,Display Faces,enlarged_images/B/f3n.bmp / enlarged_images/B/f3n.bmp,,,0.5035558333620429,[,fNN
64.0,Display Faces,enlarged_images/B/f3n.bmp / enlarged_images/B/f3n.bmp,,,1.0047253749798983,[,fNN
64.0,ITI,ITI,,,0.7271634583012201,,
64.0,Fixation,+,,,2.5024589999811724,,
65.0,Fixation,+,,,0.5046526666847058,,
65.0,Display Faces,enlarged_images/B/f2n.bmp / enlarged_images/B/f2n.bmp,,,0.5038804999785498,[,mNTc
65.0,Display Faces,enlarged_images/B/f2n.bmp / enlarged_images/B/f2n.bmp,,,1.0029744999483228,[,mNTc
65.0,ITI,ITI,,,0.5769322083215229,,
65.0,Fixation,+,,,2.50375587499002,,
66.0,Fixation,+,,,0.5045383333344944,,
66.0,Display Faces,enlarged_images/B/f5n.bmp / enlarged_images/B/f5n.bmp,,,0.5040032917167991,[,fNN
66.0,Display Faces,enlarged_images/B/f5n.bmp / enlarged_images/B/f5n.bmp,,,1.003612416679971,[,fNN
66.0,ITI,ITI,,,0.47744841664098203,,
66.0,Fixation,+,,,2.502524708339479,,
67.0,Fixation,+,,,0.5046439582947642,,
67.0,Display Faces,enlarged_images/B/f1n.bmp / enlarged_images/B/f1n.bmp,,,0.5045587082859129,[,mNTc
67.0,Display Faces,enlarged_images/B/f1n.bmp / enlarged_images/B/f1n.bmp,,,1.0042616667342372,[,mNTc
67.0,ITI,ITI,,,0.32754016667604446,,
67.0,Fixation,+,,,2.5031528749968857,,
68.0,Fixation,+,,,0.5044622083078139,,
68.0,Display Faces,enlarged_images/B/m5n.bmp / enlarged_images/B/m5n.bmp,,,0.5047412916901521,[,mNN
68.0,Display Faces,enlarged_images/B/m5n.bmp / enlarged_images/B/m5n.bmp,,,1.00472629169235,[,mNN
68.0,ITI,ITI,,,0.4523562917020172,,
68.0,Fixation,+,,,2.503076000022702,,
69.0,Fixation,+,,,0.504371750052087,,
69.0,Display Faces,enlarged_images/B/f3n.bmp / enlarged_images/B/f3n.bmp,,,0.5041971667087637,[,fNTc
69.0,Display Faces,enlarged_images/B/f3n.bmp / enlarged_images/B/f3n.bmp,,,1.0033505000174046,[,fNTc
69.0,ITI,ITI,,,0.427463416592218,,
69.0,Fixation,+,,,2.5030829166644253,,
70.0,Fixation,+,,,0.5046157499891706,,
70.0,Display Faces,enlarged_images/B/m1n.bmp / enlarged_images/B/m1n.bmp,,,0.5041706666233949,[,mNN
70.0,Display Faces,enlarged_images/B/m1n.bmp / enlarged_images/B/m1n.bmp,,,1.00366754172137,[,mNN
70.0,ITI,ITI,,,0.677474208350759,,
70.0,Fixation,+,,,2.50314770831028,,
71.0,Fixation,+,,,0.5044638332910836,,
71.0,Display Faces,enlarged_images/B/m1t.bmp / enlarged_images/B/m1n.bmp,,,0.5040615833131596,[,mNTi
71.0,Display Faces,enlarged_images/B/m1t.bmp / enlarged_images/B/m1n.bmp,,,1.003646333294455,[,mNTi
71.0,ITI,ITI,,,0.37769287498667836,,
71.0,Fixation,+,,,2.503153041645419,,
72.0,Fixation,+,,,0.5046847499907017,,
72.0,Display Faces,enlarged_images/B/f3n.bmp / enlarged_images/B/f3n.bmp,,,0.5066258749575354,[,fNN
72.0,Display Faces,enlarged_images/B/f3n.bmp / enlarged_images/B/f3n.bmp,,,1.0040249584126286,[,fNN
72.0,ITI,ITI,,,0.32750729168765247,,
72.0,Fixation,+,,,2.503028000006452,,
73.0,Fixation,+,,,0.5041414166335016,,
73.0,Display Faces,enlarged_images/B/f4t.bmp / enlarged_images/B/f4n.bmp,,,0.5042042916757055,[,fNTi
73.0,Display Faces,enlarged_images/B/f4t.bmp / enlarged_images/B/f4n.bmp,,,1.0039150833617896,[,fNTi
73.0,ITI,ITI,,,0.7023979583755136,,
73.0,Fixation,+,,,2.5029471666784957,,
74.0,Fixation,+,,,0.5042429583263583,,
74.0,Display Faces,enlarged_images/B/m5n.bmp / enlarged_images/B/m5t.bmp,,,0.5043594167218544,[,mNTi
74.0,Display Faces,enlarged_images/B/m5n.bmp / enlarged_images/B/m5t.bmp,,,1.0035346667282283,[,mNTi
74.0,ITI,ITI,,,0.2522619999945164,,
74.0,Fixation,+,,,2.5029535416397266,,
75.0,Fixation,+,,,0.5054604999604635,,
75.0,Display Faces,enlarged_images/B/f2n.bmp / enlarged_images/B/f2t.bmp,,,0.5039047499885783,[,fNTi
75.0,Display Faces,enlarged_images/B/f2n.bmp / enlarged_images/B/f2t.bmp,,,1.003212750016246,[,fNTi
75.0,ITI,ITI,,,0.6524371250416152,,
75.0,Fixation,+,,,2.502760249946732,,
76.0,Fixation,+,,,0.5042393750045449,,
76.0,Display Faces,enlarged_images/B/f4n.bmp / enlarged_images/B/f4n.bmp,,,0.5036384999984875,[,fNTc
76.0,Display Faces,enlarged_images/B/f4n.bmp / enlarged_images/B/f4n.bmp,,,1.0034478333545849,[,fNTc
76.0,ITI,ITI,,,0.42725237499689683,,
76.0,Fixation,+,,,2.5025489583495073,,
77.0,Fixation,+,,,0.5042021666886285,,
77.0,Display Faces,enlarged_images/B/f5n.bmp / enlarged_images/B/f5n.bmp,,,0.5037800000282004,[,mNTc
77.0,Display Faces,enlarged_images/B/f5n.bmp / enlarged_images/B/f5n.bmp,,,1.0032303333864547,[,mNTc
77.0,ITI,ITI,,,0.7020467499969527,,
77.0,Fixation,+,,,2.502479583316017,,
78.0,Fixation,+,,,0.5039509166963398,,
78.0,Display Faces,enlarged_images/B/f3n.bmp / enlarged_images/B/f3n.bmp,,,0.5035132915945724,[,mNTc
78.0,Display Faces,enlarged_images/B/f3n.bmp / enlarged_images/B/f3n.bmp,,,1.0029643750167452,[,mNTc
78.0,ITI,ITI,,,0.577223124972079,,
78.0,Fixation,+,,,2.502896541613154,,
79.0,Fixation,+,,,0.5049583750078455,,
79.0,Display Faces,enlarged_images/B/m3n.bmp / enlarged_images/B/m3n.bmp,,,0.5039892083732411,[,mNN
79.0,Display Faces,enlarged_images/B/m3n.bmp / enlarged_images/B/m3n.bmp,,,1.003439416643232,[,mNN
79.0,ITI,ITI,,,0.3519804166862741,,
79.0,Fixation,+,,,2.5024894583621062,,
80.0,Fixation,+,,,0.5040037916623987,,
80.0,Display Faces,enlarged_images/B/f4n.bmp / enlarged_images/B/f4n.bmp,,,0.5036878749961033,[,fNTc
80.0,Display Faces,enlarged_images/B/f4n.bmp / enlarged_images/B/f4n.bmp,,,1.002966458327137,[,fNTc
80.0,ITI,ITI,,,0.6520944999647327,,
80.0,Fixation,+,,,2.502369791676756,,
81.0,Fixation,+,,,0.5041736666462384,,
81.0,Display Faces,enlarged_images/B/m2n.bmp / enlarged_images/B/m2n.bmp,,,0.5036245000083,[,mNN
81.0,Display Faces,enlarged_images/B/m2n.bmp / enlarged_images/B/m2n.bmp,,,1.0032889582798816,[,mNN
81.0,ITI,ITI,,,0.6769920833176002,,
81.0,Fixation,+,,,2.5033431249903515,,
82.0,Fixation,+,,,0.5045226250076666,,
82.0,Display Faces,enlarged_images/B/m1n.bmp / enlarged_images/B/m1n.bmp,,,0.50429416669067,[,mNN
82.0,Display Faces,enlarged_images/B/m1n.bmp / enlarged_images/B/m1n.bmp,,,1.0037894999841228,[,mNN
82.0,ITI,ITI,,,0.6778132083709352,,
82.0,Fixation,+,,,2.503389291698113,,
83.0,Fixation,+,,,0.5046159166959114,,
83.0,Display Faces,enlarged_images/B/f4n.bmp / enlarged_images/B/f4n.bmp,,,0.5036782083916478,[,fNN
83.0,Display Faces,enlarged_images/B/f4n.bmp / enlarged_images/B/f4n.bmp,,,1.0032378332689404,[,fNN
83.0,ITI,ITI,,,0.47709474997827783,,
83.0,Fixation,+,,,2.5024256666656584,,
84.0,Fixation,+,,,0.5040901249740273,,
84.0,Display Faces,enlarged_images/B/f3n.bmp / enlarged_images/B/f3n.bmp,,,0.5035413749865256,[,fNN
84.0,Display Faces,enlarged_images/B/f3n.bmp / enlarged_images/B/f3n.bmp,,,1.0036157916183583,[,fNN
84.0,ITI,ITI,,,0.7023004583315924,,
84.0,Fixation,+,,,2.502867833361961,,
85.0,Fixation,+,,,0.5045187083305791,,
85.0,Display Faces,enlarged_images/B/f1t.bmp / enlarged_images/B/f1n.bmp,,,0.5037143750232644,[,fNTi
85.0,Display Faces,enlarged_images/B/f1t.bmp / enlarged_images/B/f1n.bmp,,,1.003164249996189,[,fNTi
85.0,ITI,ITI,,,0.4774550833972171,,
85.0,Fixation,+,,,2.5026791249983944,,
86.0,Fixation,+,,,0.5043514166609384,,
86.0,Display Faces,enlarged_images/B/f5n.bmp / enlarged_images/B/f5n.bmp,,,0.5036597083089873,[,fNTc
86.0,Display Faces,enlarged_images/B/f5n.bmp / enlarged_images/B/f5n.bmp,,,1.0032537499791943,[,fNTc
86.0,ITI,ITI,,,0.37729529169155285,,
86.0,Fixation,+,,,2.5023781665950082,,
87.0,Fixation,+,,,0.5047164167044684,,
87.0,Display Faces,enlarged_images/B/f2n.bmp / enlarged_images/B/f2t.bmp,,,0.5036091249785386,[,fNTi
87.0,Display Faces,enlarged_images/B/f2n.bmp / enlarged_images/B/f2t.bmp,,,1.0029772915877402,[,fNTi
87.0,ITI,ITI,,,0.5270866666687652,,
87.0,Fixation,+,,,2.5025521249626763,,
88.0,Fixation,+,,,0.5039675000007264,,
88.0,Display Faces,enlarged_images/B/m2n.bmp / enlarged_images/B/m2n.bmp,,,0.5035917917266488,[,mNN
88.0,Display Faces,enlarged_images/B/m2n.bmp / enlarged_images/B/m2n.bmp,,,1.0033419583924115,[,mNN
88.0,ITI,ITI,,,0.4019935000105761,,
88.0,Fixation,+,,,2.502758583344985,,
89.0,Fixation,+,,,0.5054001249955036,,
89.0,Display Faces,enlarged_images/B/f3n.bmp / enlarged_images/B/f3t.bmp,,,0.5037678749649785,[,fNTi
89.0,Display Faces,enlarged_images/B/f3n.bmp / enlarged_images/B/f3t.bmp,,,1.002783416712191,[,fNTi
89.0,ITI,ITI,,,0.6768850833177567,,
89.0,Fixation,+,,,2.5029184166924097,,
90.0,Fixation,+,,,0.5041534582851455,,
90.0,Display Faces,enlarged_images/B/m5n.bmp / enlarged_images/B/m5n.bmp,,,0.503622583404649,[,mNN
90.0,Display Faces,enlarged_images/B/m5n.bmp / enlarged_images/B/m5n.bmp,,,1.003607541671954,[,mNN
90.0,ITI,ITI,,,0.7521210833219811,,
90.0,Fixation,+,,,2.502826499985531,,
91.0,Fixation,+,,,0.5045802916283719,,
91.0,Display Faces,enlarged_images/B/f3n.bmp / enlarged_images/B/f3n.bmp,,,0.5036534583778121,[,mNTc
91.0,Display Faces,enlarged_images/B/f3n.bmp / enlarged_images/B/f3n.bmp,,,1.0031795833492652,[,mNTc
91.0,ITI,ITI,,,0.7520963333663531,,
91.0,Fixation,+,,,2.502605833346024,,
92.0,Fixation,+,,,0.5040932917036116,,
92.0,Display Faces,enlarged_images/B/f5n.bmp / enlarged_images/B/f5n.bmp,,,0.5039243749924935,[,mNTc
92.0,Display Faces,enlarged_images/B/f5n.bmp / enlarged_images/B/f5n.bmp,,,1.0036063333391212,[,mNTc
92.0,ITI,ITI,,,0.6269567083800212,,
92.0,Fixation,+,,,2.5026650415966287,,
93.0,Fixation,+,,,0.5044591666082852,,
93.0,Display Faces,enlarged_images/B/f4n.bmp / enlarged_images/B/f4n.bmp,,,0.5035943750408478,[,fNTc
93.0,Display Faces,enlarged_images/B/f4n.bmp / enlarged_images/B/f4n.bmp,,,1.0033995833364315,[,fNTc
93.0,ITI,ITI,,,0.27697829162934795,,
93.0,Fixation,+,,,2.5023075832868926,,
94.0,Fixation,+,,,0.5040152083383873,,
94.0,Display Faces,enlarged_images/B/m3t.bmp / enlarged_images/B/m3n.bmp,,,0.5036427084123716,[,mNTi
94.0,Display Faces,enlarged_images/B/m3t.bmp / enlarged_images/B/m3n.bmp,,,1.003130124998279,[,mNTi
94.0,ITI,ITI,,,0.702024458325468,,
94.0,Fixation,+,,,2.5026074166526087,,
95.0,Fixation,+,,,0.5048077499959618,,
95.0,Display Faces,enlarged_images/B/f3n.bmp / enlarged_images/B/f3n.bmp,,,0.5036586666246876,[,fNTc
95.0,Display Faces,enlarged_images/B/f3n.bmp / enlarged_images/B/f3n.bmp,,,1.0033377083018422,[,fNTc
95.0,ITI,ITI,,,0.3019295416888781,,
95.0,Fixation,+,,,2.502363624982536,,
96.0,Fixation,+,,,0.503919999988284,,
96.0,Display Faces,enlarged_images/B/f2n.bmp / enlarged_images/B/f2n.bmp,,,0.5038209999911487,[,fNTc
96.0,Display Faces,enlarged_images/B/f2n.bmp / enlarged_images/B/f2n.bmp,,,1.003024416626431,[,fNTc
96.0,ITI,ITI,,,0.552400958375074,,
96.0,Fixation,+,,,2.502582541666925,,
97.0,Fixation,+,,,0.5055789583711885,,
97.0,Display Faces,enlarged_images/B/f2n.bmp / enlarged_images/B/f2n.bmp,,,0.5037741666892543,[,fNN
97.0,Display Faces,enlarged_images/B/f2n.bmp / enlarged_images/B/f2n.bmp,,,1.0030647499952465,[,fNN
97.0,ITI,ITI,,,0.6020873333327472,,
97.0,Fixation,+,,,2.503256458323449,,
98.0,Fixation,+,,,0.5041482917149551,,
98.0,Display Faces,enlarged_images/B/f2n.bmp / enlarged_images/B/f2n.bmp,,,0.5039614582783543,[,fNN
98.0,Display Faces,enlarged_images/B/f2n.bmp / enlarged_images/B/f2n.bmp,,,1.0031881249742582,[,fNN
98.0,ITI,ITI,,,0.7269797917106189,,
98.0,Fixation,+,,,2.502498874964658,,
99.0,Fixation,+,,,0.50415891665034,,
99.0,Display Faces,enlarged_images/B/m4t.bmp / enlarged_images/B/m4n.bmp,,,0.5036763749667443,[,mNTi
99.0,Display Faces,enlarged_images/B/m4t.bmp / enlarged_images/B/m4n.bmp,,,1.0033133333199657,[,mNTi
99.0,ITI,ITI,,,0.3520317083457485,,
99.0,Fixation,+,,,2.502414458314888,,
100.0,Fixation,+,,,0.5040989999542944,,
100.0,Display Faces,enlarged_images/B/f4n.bmp / enlarged_images/B/f4n.bmp,,,0.5037145833484828,[,mNTc
100.0,Display Faces,enlarged_images/B/f4n.bmp / enlarged_images/B/f4n.bmp,,,1.0036150832893327,[,mNTc
100.0,ITI,ITI,,,0.7520213333773427,,
100.0,Fixation,+,,,2.5025313749792986,,
101.0,Fixation,+,,,0.504298124986235,,
101.0,Display Faces,enlarged_images/B/f1n.bmp / enlarged_images/B/f1t.bmp,,,0.5040640833904035,[,fNTi
101.0,Display Faces,enlarged_images/B/f1n.bmp / enlarged_images/B/f1t.bmp,,,1.0035903333337046,[,fNTi
101.0,ITI,ITI,,,0.5520230833790265,,
101.0,Fixation,+,,,2.5024265832616948,,
102.0,Fixation,+,,,0.5040092500275932,,
102.0,Display Faces,enlarged_images/B/f5n.bmp / enlarged_images/B/f5n.bmp,,,0.5035890833241865,[,mNTc
102.0,Display Faces,enlarged_images/B/f5n.bmp / enlarged_images/B/f5n.bmp,,,1.0030791250173934,[,mNTc
102.0,ITI,ITI,,,0.427264416590333,,
102.0,Fixation,+,,,2.5024714166647755,,
103.0,Fixation,+,,,0.5047822499764152,,
103.0,Display Faces,enlarged_images/B/f5t.bmp / enlarged_images/B/f5n.bmp,,,0.5038171666092239,[,fNTi
103.0,Display Faces,enlarged_images/B/f5t.bmp / enlarged_images/B/f5n.bmp,,,1.0033942916197702,[,fNTi
103.0,ITI,ITI,,,0.3520344583084807,,
103.0,Fixation,+,,,2.502486541576218,,
104.0,Fixation,+,,,0.5041647500474937,,
104.0,Display Faces,enlarged_images/B/f3n.bmp / enlarged_images/B/f3n.bmp,,,0.503720416687429,[,mNTc
104.0,Display Faces,enlarged_images/B/f3n.bmp / enlarged_images/B/f3n.bmp,,,1.0030237499740906,[,mNTc
104.0,ITI,ITI,,,0.5273111666901968,,
104.0,Fixation,+,,,2.5025038332678378,,
105.0,Fixation,+,,,0.504404999956023,,
105.0,Display Faces,enlarged_images/B/f5n.bmp / enlarged_images/B/f5n.bmp,,,0.5036652500275522,[,fNN
105.0,Display Faces,enlarged_images/B/f5n.bmp / enlarged_images/B/f5n.bmp,,,1.0030121665913612,[,fNN
105.0,ITI,ITI,,,0.7270644583622925,,
105.0,Fixation,+,,,2.5028736666426994,,
106.0,Fixation,+,,,0.5047925416147336,,
106.0,Display Faces,enlarged_images/B/f4n.bmp / enlarged_images/B/f4n.bmp,,,0.5036444999859668,[,fNN
106.0,Display Faces,enlarged_images/B/f4n.bmp / enlarged_images/B/f4n.bmp,,,1.0029716250137426,[,fNN
106.0,ITI,ITI,,,0.3270408333046362,,
106.0,Fixation,+,,,2.502495958353393,,
107.0,Fixation,+,,,0.5046040833112784,,
107.0,Display Faces,enlarged_images/B/m5n.bmp / enlarged_images/B/m5t.bmp,,,0.5039123333990574,[,mNTi
107.0,Display Faces,enlarged_images/B/m5n.bmp / enlarged_images/B/m5t.bmp,,,1.0029527500155382,[,mNTi
107.0,ITI,ITI,,,0.552052749961149,,
107.0,Fixation,+,,,2.5030982082826085,,
108.0,Fixation,+,,,0.5041841666679829,,
108.0,Display Faces,enlarged_images/B/f5t.bmp / enlarged_images/B/f5n.bmp,,,0.5037061666953377,[,fNTi
108.0,Display Faces,enlarged_images/B/f5t.bmp / enlarged_images/B/f5n.bmp,,,1.003399083390832,[,fNTi
108.0,ITI,ITI,,,0.6272842499893159,,
108.0,Fixation,+,,,2.5024623333010823,,
109.0,Fixation,+,,,0.504086583328899,,
109.0,Display Faces,enlarged_images/B/m1n.bmp / enlarged_images/B/m1t.bmp,,,0.5041611249907874,[,mNTi
109.0,Display Faces,enlarged_images/B/m1n.bmp / enlarged_images/B/m1t.bmp,,,1.0034131666761823,[,mNTi
109.0,ITI,ITI,,,0.30225495831109583,,
109.0,Fixation,+,,,2.5024928333004937,,
110.0,Fixation,+,,,0.5040817916742526,,
110.0,Display Faces,enlarged_images/B/m2t.bmp / enlarged_images/B/m2n.bmp,,,0.5037236250354908,[,mNTi
110.0,Display Faces,enlarged_images/B/m2t.bmp / enlarged_images/B/m2n.bmp,,,1.0128826249856502,[,mNTi
110.0,ITI,ITI,,,0.40212754165986553,,
110.0,Fixation,+,,,2.502676583302673,,
111.0,Fixation,+,,,0.5044750417000614,,
111.0,Display Faces,enlarged_images/B/f5n.bmp / enlarged_images/B/f5n.bmp,,,0.5038161249831319,[,mNTc
111.0,Display Faces,enlarged_images/B/f5n.bmp / enlarged_images/B/f5n.bmp,,,1.003356666653417,[,mNTc
111.0,ITI,ITI,,,0.6520267916494049,,
111.0,Fixation,+,,,2.502667583350558,,
112.0,Fixation,+,,,0.5042179583688267,,
112.0,Display Faces,enlarged_images/B/m1n.bmp / enlarged_images/B/m1n.bmp,,,0.5036720416974276,[,mNN
112.0,Display Faces,enlarged_images/B/m1n.bmp / enlarged_images/B/m1n.bmp,,,1.003329000028316,[,mNN
112.0,ITI,ITI,,,0.7522507083485834,,
112.0,Fixation,+,,,2.502786291646771,,
113.0,Fixation,+,,,0.5042530833161436,,
113.0,Display Faces,enlarged_images/B/f5n.bmp / enlarged_images/B/f5n.bmp,,,0.5037855416885577,[,fNTc
113.0,Display Faces,enlarged_images/B/f5n.bmp / enlarged_images/B/f5n.bmp,,,1.003141583292745,[,fNTc
113.0,ITI,ITI,,,0.45202970830723643,,
113.0,Fixation,+,,,2.5032815416925587,,
114.0,Fixation,+,,,0.5041191250202246,,
114.0,Display Faces,enlarged_images/B/f4n.bmp / enlarged_images/B/f4t.bmp,,,0.5035918333451264,[,fNTi
114.0,Display Faces,enlarged_images/B/f4n.bmp / enlarged_images/B/f4t.bmp,,,1.0029855000320822,[,fNTi
114.0,ITI,ITI,,,0.5523774583125487,,
114.0,Fixation,+,,,2.502716999966651,,
115.0,Fixation,+,,,0.5042791250161827,,
115.0,Display Faces,enlarged_images/B/m2n.bmp / enlarged_images/B/m2n.bmp,,,0.5040150833665393,[,mNN
115.0,Display Faces,enlarged_images/B/m2n.bmp / enlarged_images/B/m2n.bmp,,,1.003523833293002,[,mNN
115.0,ITI,ITI,,,0.4771053332951851,,
115.0,Fixation,+,,,2.502518041699659,,
116.0,Fixation,+,,,0.5040267083095387,,
116.0,Display Faces,enlarged_images/B/f1n.bmp / enlarged_images/B/f1n.bmp,,,0.5038017500191927,[,fNTc
116.0,Display Faces,enlarged_images/B/f1n.bmp / enlarged_images/B/f1n.bmp,,,1.003490916627925,[,fNTc
116.0,ITI,ITI,,,0.55205462500453,,
116.0,Fixation,+,,,2.502392041613348,,
117.0,Fixation,+,,,0.5043992082937621,,
117.0,Display Faces,enlarged_images/B/m5n.bmp / enlarged_images/B/m5n.bmp,,,0.5036352082970552,[,mNN
117.0,Display Faces,enlarged_images/B/m5n.bmp / enlarged_images/B/m5n.bmp,,,1.003263666643761,[,mNN
117.0,ITI,ITI,,,0.4270868333405815,,
117.0,Fixation,+,,,2.5025067916722037,,
118.0,Fixation,+,,,0.5048981250147335,,
118.0,Display Faces,enlarged_images/B/f5n.bmp / enlarged_images/B/f5t.bmp,,,0.5035901666269638,[,fNTi
118.0,Display Faces,enlarged_images/B/f5n.bmp / enlarged_images/B/f5t.bmp,,,1.003101791604422,[,fNTi
118.0,ITI,ITI,,,0.7271187083097175,,
118.0,Fixation,+,,,2.5024355832720175,,
119.0,Fixation,+,,,0.5046939583844505,,
119.0,Display Faces,enlarged_images/B/f3n.bmp / enlarged_images/B/f3t.bmp,,,0.5036720416974276,[,fNTi
119.0,Display Faces,enlarged_images/B/f3n.bmp / enlarged_images/B/f3t.bmp,,,1.0031244999845512,[,fNTi
119.0,ITI,ITI,,,0.6020570833352394,,
119.0,Fixation,+,,,2.502423624973744,,
120.0,Fixation,+,,,0.504088583344128,,
120.0,Display Faces,enlarged_images/B/f4n.bmp / enlarged_images/B/f4n.bmp,,,0.5036573749966919,[,mNTc
120.0,Display Faces,enlarged_images/B/f4n.bmp / enlarged_images/B/f4n.bmp,,,1.0035698750289157,[,mNTc
120.0,ITI,ITI,,,0.2772873750072904,,
120.0,Fixation,+,,,2.502632416668348,,
,REST,Please Rest,,,648.5421190416673,,
