expName,Version,subjectID,Session Number,Section,Start Time,End Time,Duration,Block Count,Trial Count,Image Displayed,Flanker,Direction,Correct Answer,Cell Number,User Response,Correct or Incorrect,User Response TimeStamp,User Response Time
FlankerTask,1,1,1,Instruction,04/01/22 09:59:03,04/01/22 09:59:06,2.996568,,,,,,,,,,,
FlankerTask,1,1,1,Waiting for scanner,04/01/22 09:59:06,04/01/22 09:59:07,0.999427,0,,,,,,,,,,
FlankerTask,1,1,1,Get Ready Screen,04/01/22 09:59:07,04/01/22 09:59:15,8.015508,0,,,,,,,,,,
FlankerTask,1,1,1,Fixation Screen,04/01/22 09:59:15,04/01/22 09:59:15,0.566728,0,0,,,,,,,,,
FlankerTask,1,1,1,Flanker Image Shown (0.2 sec),04/01/22 09:59:15,04/01/22 09:59:16,0.414151,0,0,<<<<<,Congruent,Left,4,4,No response,,,
FlankerTask,1,1,1,Response Window (1.7 sec),04/01/22 09:59:16,04/01/22 09:59:17,1.716358,,0,<<<<<,Congruent,Left,4,4,No response,,,
FlankerTask,1,1,1,Blank Screen,04/01/22 09:59:17,04/01/22 09:59:18,0.509242,0,0,,,,,,,,,
FlankerTask,1,1,1,Fixation Screen,04/01/22 09:59:18,04/01/22 09:59:18,0.32883,0,1,,,,,,,,,
FlankerTask,1,1,1,Flanker Image Shown (0.2 sec),04/01/22 09:59:18,04/01/22 09:59:19,0.41262,0,1,>>>>>,Congruent,Right,2,4,No response,,,
FlankerTask,1,1,1,Response Window (1.7 sec),04/01/22 09:59:19,04/01/22 09:59:20,1.716309,,1,>>>>>,Congruent,Right,2,4,No response,,,
FlankerTask,1,1,1,Blank Screen,04/01/22 09:59:20,04/01/22 09:59:21,0.509825,0,1,,,,,,,,,
FlankerTask,1,1,1,Fixation Screen,04/01/22 09:59:21,04/01/22 09:59:21,0.337979,0,2,,,,,,,,,
FlankerTask,1,1,1,Flanker Image Shown (0.2 sec),04/01/22 09:59:21,04/01/22 09:59:22,0.407311,0,2,>>>>>,Congruent,Right,2,4,No response,,,
FlankerTask,1,1,1,Response Window (1.7 sec),04/01/22 09:59:22,04/01/22 09:59:23,1.709461,,2,>>>>>,Congruent,Right,2,4,No response,,,
FlankerTask,1,1,1,Blank Screen,04/01/22 09:59:23,04/01/22 09:59:24,0.525125,0,2,,,,,,,,,
FlankerTask,1,1,1,Fixation Screen,04/01/22 09:59:24,04/01/22 09:59:24,0.3959,0,3,,,,,,,,,
FlankerTask,1,1,1,Flanker Image Shown (0.2 sec),04/01/22 09:59:24,04/01/22 09:59:25,0.414758,0,3,<<<<<,Congruent,Left,4,4,No response,,,
FlankerTask,1,1,1,Response Window (1.7 sec),04/01/22 09:59:25,04/01/22 09:59:26,1.71874,,3,<<<<<,Congruent,Left,4,4,No response,,,
FlankerTask,1,1,1,Blank Screen,04/01/22 09:59:26,04/01/22 09:59:27,0.526157,0,3,,,,,,,,,
FlankerTask,1,1,1,Fixation Screen,04/01/22 09:59:27,04/01/22 09:59:27,0.446107,0,4,,,,,,,,,
FlankerTask,1,1,1,Flanker Image Shown (0.2 sec),04/01/22 09:59:27,04/01/22 09:59:28,0.422182,0,4,<<><<,Incongruent,Right,2,5,No response,,,
FlankerTask,1,1,1,Response Window (1.7 sec),04/01/22 09:59:28,04/01/22 09:59:29,1.726338,,4,<<><<,Incongruent,Right,2,5,No response,,,
FlankerTask,1,1,1,Blank Screen,04/01/22 09:59:29,04/01/22 09:59:30,0.509953,0,4,,,,,,,,,
FlankerTask,1,1,1,Fixation Screen,04/01/22 09:59:30,04/01/22 09:59:30,0.480524,0,5,,,,,,,,,
FlankerTask,1,1,1,Flanker Image Shown (0.2 sec),04/01/22 09:59:30,04/01/22 09:59:31,0.413481,0,5,>><>>,Incongruent,Left,4,5,No response,,,
FlankerTask,1,1,1,Response Window (1.7 sec),04/01/22 09:59:31,04/01/22 09:59:33,1.718546,,5,>><>>,Incongruent,Left,4,5,No response,,,
FlankerTask,1,1,1,Blank Screen,04/01/22 09:59:33,04/01/22 09:59:33,0.509881,0,5,,,,,,,,,
FlankerTask,1,1,1,Fixation Screen,04/01/22 09:59:33,04/01/22 09:59:34,0.505309,0,6,,,,,,,,,
FlankerTask,1,1,1,Flanker Image Shown (0.2 sec),04/01/22 09:59:34,04/01/22 09:59:34,0.422059,0,6,>><>>,Incongruent,Left,4,5,No response,,,
FlankerTask,1,1,1,Response Window (1.7 sec),04/01/22 09:59:34,04/01/22 09:59:36,1.719612,,6,>><>>,Incongruent,Left,4,5,No response,,,
FlankerTask,1,1,1,Blank Screen,04/01/22 09:59:36,04/01/22 09:59:36,0.509961,0,6,,,,,,,,,
FlankerTask,1,1,1,Fixation Screen,04/01/22 09:59:36,04/01/22 09:59:37,0.46345,0,7,,,,,,,,,
FlankerTask,1,1,1,Flanker Image Shown (0.2 sec),04/01/22 09:59:37,04/01/22 09:59:37,0.414059,0,7,>>>>>,Congruent,Right,2,4,No response,,,
FlankerTask,1,1,1,Response Window (1.7 sec),04/01/22 09:59:37,04/01/22 09:59:39,1.717154,,7,>>>>>,Congruent,Right,2,4,No response,,,
FlankerTask,1,1,1,Blank Screen,04/01/22 09:59:39,04/01/22 09:59:39,0.510396,0,7,,,,,,,,,
FlankerTask,1,1,1,Fixation Screen,04/01/22 09:59:39,04/01/22 09:59:40,0.605678,0,8,,,,,,,,,
FlankerTask,1,1,1,Flanker Image Shown (0.2 sec),04/01/22 09:59:40,04/01/22 09:59:40,0.430459,0,8,>><>>,Incongruent,Left,4,5,No response,,,
FlankerTask,1,1,1,Response Window (1.7 sec),04/01/22 09:59:40,04/01/22 09:59:42,1.722992,,8,>><>>,Incongruent,Left,4,5,No response,,,
FlankerTask,1,1,1,Blank Screen,04/01/22 09:59:42,04/01/22 09:59:43,0.506798,0,8,,,,,,,,,
FlankerTask,1,1,1,Fixation Screen,04/01/22 09:59:43,04/01/22 09:59:43,0.481188,0,9,,,,,,,,,
FlankerTask,1,1,1,Flanker Image Shown (0.2 sec),04/01/22 09:59:43,04/01/22 09:59:44,0.412964,0,9,>>>>>,Congruent,Right,2,4,No response,,,
FlankerTask,1,1,1,Response Window (1.7 sec),04/01/22 09:59:44,04/01/22 09:59:45,1.719045,,9,>>>>>,Congruent,Right,2,4,No response,,,
FlankerTask,1,1,1,Blank Screen,04/01/22 09:59:45,04/01/22 09:59:46,0.509623,0,9,,,,,,,,,
FlankerTask,1,1,1,Fixation Screen,04/01/22 09:59:46,04/01/22 09:59:46,0.389696,0,10,,,,,,,,,
FlankerTask,1,1,1,Flanker Image Shown (0.2 sec),04/01/22 09:59:46,04/01/22 09:59:47,0.421394,0,10,<<><<,Incongruent,Right,2,5,No response,,,
FlankerTask,1,1,1,Response Window (1.7 sec),04/01/22 09:59:47,04/01/22 09:59:48,1.717084,,10,<<><<,Incongruent,Right,2,5,No response,,,
FlankerTask,1,1,1,Blank Screen,04/01/22 09:59:48,04/01/22 09:59:49,0.516873,0,10,,,,,,,,,
FlankerTask,1,1,1,Fixation Screen,04/01/22 09:59:49,04/01/22 09:59:49,0.414121,0,11,,,,,,,,,
FlankerTask,1,1,1,Flanker Image Shown (0.2 sec),04/01/22 09:59:49,04/01/22 09:59:50,0.406788,0,11,<<<<<,Congruent,Left,4,4,No response,,,
FlankerTask,1,1,1,Response Window (1.7 sec),04/01/22 09:59:50,04/01/22 09:59:51,1.7225,,11,<<<<<,Congruent,Left,4,4,No response,,,
FlankerTask,1,1,1,Blank Screen,04/01/22 09:59:51,04/01/22 09:59:52,0.509514,0,11,,,,,,,,,
FlankerTask,1,1,1,Fixation Screen,04/01/22 09:59:52,04/01/22 09:59:52,0.380726,0,12,,,,,,,,,
FlankerTask,1,1,1,Flanker Image Shown (0.2 sec),04/01/22 09:59:52,04/01/22 09:59:53,0.437714,0,12,>><>>,Incongruent,Left,4,5,No response,,,
FlankerTask,1,1,1,Response Window (1.7 sec),04/01/22 09:59:53,04/01/22 09:59:54,1.73179,,12,>><>>,Incongruent,Left,4,5,No response,,,
FlankerTask,1,1,1,Blank Screen,04/01/22 09:59:54,04/01/22 09:59:55,0.525046,0,12,,,,,,,,,
FlankerTask,1,1,1,Fixation Screen,04/01/22 09:59:55,04/01/22 09:59:56,0.50637,0,13,,,,,,,,,
FlankerTask,1,1,1,Flanker Image Shown (0.2 sec),04/01/22 09:59:56,04/01/22 09:59:56,0.422371,0,13,>><>>,Incongruent,Left,4,5,No response,,,
FlankerTask,1,1,1,Response Window (1.7 sec),04/01/22 09:59:56,04/01/22 09:59:58,1.717761,,13,>><>>,Incongruent,Left,4,5,No response,,,
FlankerTask,1,1,1,Blank Screen,04/01/22 09:59:58,04/01/22 09:59:58,0.527214,0,13,,,,,,,,,
FlankerTask,1,1,1,Fixation Screen,04/01/22 09:59:58,04/01/22 09:59:59,0.556491,0,14,,,,,,,,,
FlankerTask,1,1,1,Flanker Image Shown (0.2 sec),04/01/22 09:59:59,04/01/22 09:59:59,0.420194,0,14,<<><<,Incongruent,Right,2,5,No response,,,
FlankerTask,1,1,1,Response Window (1.7 sec),04/01/22 09:59:59,04/01/22 10:00:01,1.719441,,14,<<><<,Incongruent,Right,2,5,No response,,,
FlankerTask,1,1,1,Blank Screen,04/01/22 10:00:01,04/01/22 10:00:01,0.526832,0,14,,,,,,,,,
FlankerTask,1,1,1,Fixation Screen,04/01/22 10:00:01,04/01/22 10:00:02,0.480478,0,15,,,,,,,,,
FlankerTask,1,1,1,Flanker Image Shown (0.2 sec),04/01/22 10:00:02,04/01/22 10:00:02,0.430022,0,15,>>>>>,Congruent,Right,2,4,No response,,,
FlankerTask,1,1,1,Response Window (1.7 sec),04/01/22 10:00:02,04/01/22 10:00:04,1.718477,,15,>>>>>,Congruent,Right,2,4,No response,,,
FlankerTask,1,1,1,Blank Screen,04/01/22 10:00:04,04/01/22 10:00:05,0.526754,0,15,,,,,,,,,
FlankerTask,1,1,1,Fixation Screen,04/01/22 10:00:05,04/01/22 10:00:05,0.405999,0,16,,,,,,,,,
FlankerTask,1,1,1,Flanker Image Shown (0.2 sec),04/01/22 10:00:05,04/01/22 10:00:05,0.422193,0,16,<<<<<,Congruent,Left,4,4,No response,,,
FlankerTask,1,1,1,Response Window (1.7 sec),04/01/22 10:00:05,04/01/22 10:00:07,1.734636,,16,<<<<<,Congruent,Left,4,4,No response,,,
FlankerTask,1,1,1,Blank Screen,04/01/22 10:00:07,04/01/22 10:00:08,0.52573,0,16,,,,,,,,,
FlankerTask,1,1,1,Fixation Screen,04/01/22 10:00:08,04/01/22 10:00:08,0.581299,0,17,,,,,,,,,
FlankerTask,1,1,1,Flanker Image Shown (0.2 sec),04/01/22 10:00:08,04/01/22 10:00:09,0.429819,0,17,>><>>,Incongruent,Left,4,5,No response,,,
FlankerTask,1,1,1,Response Window (1.7 sec),04/01/22 10:00:09,04/01/22 10:00:10,1.735819,,17,>><>>,Incongruent,Left,4,5,No response,,,
FlankerTask,1,1,1,Blank Screen,04/01/22 10:00:10,04/01/22 10:00:11,0.524379,0,17,,,,,,,,,
FlankerTask,1,1,1,Fixation Screen,04/01/22 10:00:11,04/01/22 10:00:11,0.401691,0,18,,,,,,,,,
FlankerTask,1,1,1,Flanker Image Shown (0.2 sec),04/01/22 10:00:11,04/01/22 10:00:12,0.422029,0,18,<<<<<,Congruent,Left,4,4,No response,,,
FlankerTask,1,1,1,Response Window (1.7 sec),04/01/22 10:00:12,04/01/22 10:00:14,1.719044,,18,<<<<<,Congruent,Left,4,4,No response,,,
FlankerTask,1,1,1,Blank Screen,04/01/22 10:00:14,04/01/22 10:00:14,0.528084,0,18,,,,,,,,,
FlankerTask,1,1,1,Fixation Screen,04/01/22 10:00:14,04/01/22 10:00:15,0.541765,0,19,,,,,,,,,
FlankerTask,1,1,1,Flanker Image Shown (0.2 sec),04/01/22 10:00:15,04/01/22 10:00:15,0.419002,0,19,<<><<,Incongruent,Right,2,5,No response,,,
FlankerTask,1,1,1,Response Window (1.7 sec),04/01/22 10:00:15,04/01/22 10:00:17,1.7161,,19,<<><<,Incongruent,Right,2,5,No response,,,
FlankerTask,1,1,1,Blank Screen,04/01/22 10:00:17,04/01/22 10:00:17,0.528313,0,19,,,,,,,,,
FlankerTask,1,1,1,Fixation Screen,04/01/22 10:00:17,04/01/22 10:00:18,0.479765,0,20,,,,,,,,,
FlankerTask,1,1,1,Flanker Image Shown (0.2 sec),04/01/22 10:00:18,04/01/22 10:00:18,0.431062,0,20,<<><<,Incongruent,Right,2,5,No response,,,
FlankerTask,1,1,1,Response Window (1.7 sec),04/01/22 10:00:18,04/01/22 10:00:20,1.735937,,20,<<><<,Incongruent,Right,2,5,No response,,,
FlankerTask,1,1,1,Blank Screen,04/01/22 10:00:20,04/01/22 10:00:20,0.522282,0,20,,,,,,,,,
FlankerTask,1,1,1,Fixation Screen,04/01/22 10:00:20,04/01/22 10:00:21,0.349401,0,21,,,,,,,,,
FlankerTask,1,1,1,Flanker Image Shown (0.2 sec),04/01/22 10:00:21,04/01/22 10:00:21,0.430557,0,21,<<><<,Incongruent,Right,2,5,No response,,,
FlankerTask,1,1,1,Response Window (1.7 sec),04/01/22 10:00:21,04/01/22 10:00:23,1.731403,,21,<<><<,Incongruent,Right,2,5,No response,,,
FlankerTask,1,1,1,Blank Screen,04/01/22 10:00:23,04/01/22 10:00:23,0.527261,0,21,,,,,,,,,
FlankerTask,1,1,1,Fixation Screen,04/01/22 10:00:23,04/01/22 10:00:24,0.531635,0,22,,,,,,,,,
FlankerTask,1,1,1,Flanker Image Shown (0.2 sec),04/01/22 10:00:24,04/01/22 10:00:24,0.431201,0,22,<<><<,Incongruent,Right,2,5,No response,,,
FlankerTask,1,1,1,Response Window (1.7 sec),04/01/22 10:00:24,04/01/22 10:00:26,1.718476,,22,<<><<,Incongruent,Right,2,5,No response,,,
FlankerTask,1,1,1,Blank Screen,04/01/22 10:00:26,04/01/22 10:00:27,0.524403,0,22,,,,,,,,,
FlankerTask,1,1,1,Fixation Screen,04/01/22 10:00:27,04/01/22 10:00:27,0.577391,0,23,,,,,,,,,
FlankerTask,1,1,1,Flanker Image Shown (0.2 sec),04/01/22 10:00:27,04/01/22 10:00:28,0.411214,0,23,<<<<<,Congruent,Left,4,4,No response,,,
FlankerTask,1,1,1,Response Window (1.7 sec),04/01/22 10:00:28,04/01/22 10:00:29,1.722536,,23,<<<<<,Congruent,Left,4,4,No response,,,
FlankerTask,1,1,1,Blank Screen,04/01/22 10:00:29,04/01/22 10:00:30,0.52773,0,23,,,,,,,,,
FlankerTask,1,1,1,Fixation Screen,04/01/22 10:00:30,04/01/22 10:00:30,0.413454,0,24,,,,,,,,,
FlankerTask,1,1,1,Flanker Image Shown (0.2 sec),04/01/22 10:00:30,04/01/22 10:00:31,0.424442,0,24,>>>>>,Congruent,Right,2,4,No response,,,
FlankerTask,1,1,1,Response Window (1.7 sec),04/01/22 10:00:31,04/01/22 10:00:33,1.725035,,24,>>>>>,Congruent,Right,2,4,No response,,,
FlankerTask,1,1,1,Blank Screen,04/01/22 10:00:33,04/01/22 10:00:33,0.517899,0,24,,,,,,,,,
FlankerTask,1,1,1,Fixation Screen,04/01/22 10:00:33,04/01/22 10:00:33,0.401378,0,25,,,,,,,,,
FlankerTask,1,1,1,Flanker Image Shown (0.2 sec),04/01/22 10:00:33,04/01/22 10:00:34,0.42146,0,25,>><>>,Incongruent,Left,4,5,No response,,,
FlankerTask,1,1,1,Response Window (1.7 sec),04/01/22 10:00:34,04/01/22 10:00:36,1.729649,,25,>><>>,Incongruent,Left,4,5,No response,,,
FlankerTask,1,1,1,Blank Screen,04/01/22 10:00:36,04/01/22 10:00:36,0.532096,0,25,,,,,,,,,
FlankerTask,1,1,1,Fixation Screen,04/01/22 10:00:36,04/01/22 10:00:37,0.581026,0,26,,,,,,,,,
FlankerTask,1,1,1,Flanker Image Shown (0.2 sec),04/01/22 10:00:37,04/01/22 10:00:37,0.429605,0,26,>>>>>,Congruent,Right,2,4,No response,,,
FlankerTask,1,1,1,Response Window (1.7 sec),04/01/22 10:00:37,04/01/22 10:00:39,1.743215,,26,>>>>>,Congruent,Right,2,4,No response,,,
FlankerTask,1,1,1,Blank Screen,04/01/22 10:00:39,04/01/22 10:00:39,0.522284,0,26,,,,,,,,,
FlankerTask,1,1,1,Fixation Screen,04/01/22 10:00:39,04/01/22 10:00:40,0.543954,0,27,,,,,,,,,
FlankerTask,1,1,1,Flanker Image Shown (0.2 sec),04/01/22 10:00:40,04/01/22 10:00:40,0.439468,0,27,>><>>,Incongruent,Left,4,5,No response,,,
FlankerTask,1,1,1,Response Window (1.7 sec),04/01/22 10:00:40,04/01/22 10:00:42,1.73335,,27,>><>>,Incongruent,Left,4,5,No response,,,
FlankerTask,1,1,1,Blank Screen,04/01/22 10:00:42,04/01/22 10:00:43,0.539356,0,27,,,,,,,,,
FlankerTask,1,1,1,Fixation Screen,04/01/22 10:00:43,04/01/22 10:00:43,0.4207,0,28,,,,,,,,,
FlankerTask,1,1,1,Flanker Image Shown (0.2 sec),04/01/22 10:00:43,04/01/22 10:00:44,0.432978,0,28,>><>>,Incongruent,Left,4,5,No response,,,
FlankerTask,1,1,1,Response Window (1.7 sec),04/01/22 10:00:44,04/01/22 10:00:45,1.734751,,28,>><>>,Incongruent,Left,4,5,No response,,,
FlankerTask,1,1,1,Blank Screen,04/01/22 10:00:45,04/01/22 10:00:46,0.525845,0,28,,,,,,,,,
FlankerTask,1,1,1,Fixation Screen,04/01/22 10:00:46,04/01/22 10:00:46,0.57166,0,29,,,,,,,,,
FlankerTask,1,1,1,Flanker Image Shown (0.2 sec),04/01/22 10:00:46,04/01/22 10:00:47,0.422774,0,29,<<<<<,Congruent,Left,4,4,No response,,,
FlankerTask,1,1,1,Response Window (1.7 sec),04/01/22 10:00:47,04/01/22 10:00:49,1.734957,,29,<<<<<,Congruent,Left,4,4,No response,,,
FlankerTask,1,1,1,Blank Screen,04/01/22 10:00:49,04/01/22 10:00:49,0.52022,0,29,,,,,,,,,
FlankerTask,1,1,1,Fixation Screen,04/01/22 10:00:49,04/01/22 10:00:50,0.434142,0,30,,,,,,,,,
FlankerTask,1,1,1,Flanker Image Shown (0.2 sec),04/01/22 10:00:50,04/01/22 10:00:50,0.436154,0,30,<<<<<,Congruent,Left,4,4,No response,,,
FlankerTask,1,1,1,Response Window (1.7 sec),04/01/22 10:00:50,04/01/22 10:00:52,1.733779,,30,<<<<<,Congruent,Left,4,4,No response,,,
FlankerTask,1,1,1,Blank Screen,04/01/22 10:00:52,04/01/22 10:00:52,0.511031,0,30,,,,,,,,,
FlankerTask,1,1,1,Fixation Screen,04/01/22 10:00:52,04/01/22 10:00:53,0.539317,0,31,,,,,,,,,
FlankerTask,1,1,1,Flanker Image Shown (0.2 sec),04/01/22 10:00:53,04/01/22 10:00:53,0.434905,0,31,>>>>>,Congruent,Right,2,4,No response,,,
FlankerTask,1,1,1,Response Window (1.7 sec),04/01/22 10:00:53,04/01/22 10:00:55,1.720317,,31,>>>>>,Congruent,Right,2,4,No response,,,
FlankerTask,1,1,1,Blank Screen,04/01/22 10:00:55,04/01/22 10:00:55,0.522669,0,31,,,,,,,,,
FlankerTask,1,1,1,Fixation Screen,04/01/22 10:00:55,04/01/22 10:00:56,0.541789,0,32,,,,,,,,,
FlankerTask,1,1,1,Flanker Image Shown (0.2 sec),04/01/22 10:00:56,04/01/22 10:00:56,0.429809,0,32,>>>>>,Congruent,Right,2,4,No response,,,
FlankerTask,1,1,1,Response Window (1.7 sec),04/01/22 10:00:56,04/01/22 10:00:58,1.724418,,32,>>>>>,Congruent,Right,2,4,No response,,,
FlankerTask,1,1,1,Blank Screen,04/01/22 10:00:58,04/01/22 10:00:59,0.525346,0,32,,,,,,,,,
FlankerTask,1,1,1,Fixation Screen,04/01/22 10:00:59,04/01/22 10:00:59,0.491877,0,33,,,,,,,,,
FlankerTask,1,1,1,Flanker Image Shown (0.2 sec),04/01/22 10:00:59,04/01/22 10:01:00,0.416008,0,33,<<><<,Incongruent,Right,2,5,No response,,,
FlankerTask,1,1,1,Response Window (1.7 sec),04/01/22 10:01:00,04/01/22 10:01:01,1.733137,,33,<<><<,Incongruent,Right,2,5,No response,,,
FlankerTask,1,1,1,Blank Screen,04/01/22 10:01:01,04/01/22 10:01:02,0.543516,0,33,,,,,,,,,
FlankerTask,1,1,1,Fixation Screen,04/01/22 10:01:02,04/01/22 10:01:02,0.375412,0,34,,,,,,,,,
FlankerTask,1,1,1,Flanker Image Shown (0.2 sec),04/01/22 10:01:02,04/01/22 10:01:03,0.421481,0,34,<<><<,Incongruent,Right,2,5,No response,,,
FlankerTask,1,1,1,Response Window (1.7 sec),04/01/22 10:01:03,04/01/22 10:01:04,1.731158,,34,<<><<,Incongruent,Right,2,5,No response,,,
FlankerTask,1,1,1,Blank Screen,04/01/22 10:01:04,04/01/22 10:01:05,0.530296,0,34,,,,,,,,,
FlankerTask,1,1,1,Fixation Screen,04/01/22 10:01:05,04/01/22 10:01:05,0.415133,0,35,,,,,,,,,
FlankerTask,1,1,1,Flanker Image Shown (0.2 sec),04/01/22 10:01:05,04/01/22 10:01:06,0.427842,0,35,<<<<<,Congruent,Left,4,4,No response,,,
FlankerTask,1,1,1,Response Window (1.7 sec),04/01/22 10:01:06,04/01/22 10:01:08,1.735447,,35,<<<<<,Congruent,Left,4,4,No response,,,
FlankerTask,1,1,1,Blank Screen,04/01/22 10:01:08,04/01/22 10:01:08,0.527903,0,35,,,,,,,,,
FlankerTask,1,1,1,Waiting for scanner,04/01/22 10:01:08,04/01/22 10:02:20,72.095907,1,,,,,,,,,,
FlankerTask,1,1,1,Get Ready Screen,04/01/22 10:02:20,04/01/22 10:02:28,8.023127,1,,,,,,,,,,
FlankerTask,1,1,1,Fixation Screen,04/01/22 10:02:28,04/01/22 10:02:29,0.425789,1,0,,,,,,,,,
FlankerTask,1,1,1,Flanker Image Shown (0.2 sec),04/01/22 10:02:29,04/01/22 10:02:29,0.473851,1,0,>>>>>,Congruent,Right,2,4,No response,,,
FlankerTask,1,1,1,Response Window (1.7 sec),04/01/22 10:02:29,04/01/22 10:02:31,1.734845,,0,>>>>>,Congruent,Right,2,4,No response,,,
FlankerTask,1,1,1,Blank Screen,04/01/22 10:02:31,04/01/22 10:02:31,0.526309,1,0,,,,,,,,,
FlankerTask,1,1,1,Fixation Screen,04/01/22 10:02:31,04/01/22 10:02:32,0.369493,1,1,,,,,,,,,
FlankerTask,1,1,1,Flanker Image Shown (0.2 sec),04/01/22 10:02:32,04/01/22 10:02:32,0.423061,1,1,<<><<,Incongruent,Right,2,5,No response,,,
FlankerTask,1,1,1,Response Window (1.7 sec),04/01/22 10:02:32,04/01/22 10:02:34,1.735841,,1,<<><<,Incongruent,Right,2,5,No response,,,
FlankerTask,1,1,1,Blank Screen,04/01/22 10:02:34,04/01/22 10:02:34,0.524811,1,1,,,,,,,,,
FlankerTask,1,1,1,Fixation Screen,04/01/22 10:02:34,04/01/22 10:02:35,0.589604,1,2,,,,,,,,,
FlankerTask,1,1,1,Flanker Image Shown (0.2 sec),04/01/22 10:02:35,04/01/22 10:02:35,0.406315,1,2,<<><<,Incongruent,Right,2,5,No response,,,
FlankerTask,1,1,1,Response Window (1.7 sec),04/01/22 10:02:35,04/01/22 10:02:37,1.733948,,2,<<><<,Incongruent,Right,2,5,No response,,,
FlankerTask,1,1,1,Blank Screen,04/01/22 10:02:37,04/01/22 10:02:38,0.51255,1,2,,,,,,,,,
FlankerTask,1,1,1,Fixation Screen,04/01/22 10:02:38,04/01/22 10:02:38,0.417496,1,3,,,,,,,,,
FlankerTask,1,1,1,Flanker Image Shown (0.2 sec),04/01/22 10:02:38,04/01/22 10:02:39,0.413904,1,3,<<><<,Incongruent,Right,2,5,No response,,,
FlankerTask,1,1,1,Response Window (1.7 sec),04/01/22 10:02:39,04/01/22 10:02:40,1.728903,,3,<<><<,Incongruent,Right,2,5,No response,,,
FlankerTask,1,1,1,Blank Screen,04/01/22 10:02:40,04/01/22 10:02:41,0.508818,1,3,,,,,,,,,
FlankerTask,1,1,1,Fixation Screen,04/01/22 10:02:41,04/01/22 10:02:41,0.436263,1,4,,,,,,,,,
FlankerTask,1,1,1,Flanker Image Shown (0.2 sec),04/01/22 10:02:41,04/01/22 10:02:42,0.42281,1,4,<<<<<,Congruent,Left,4,4,No response,,,
FlankerTask,1,1,1,Response Window (1.7 sec),04/01/22 10:02:42,04/01/22 10:02:43,1.728036,,4,<<<<<,Congruent,Left,4,4,No response,,,
FlankerTask,1,1,1,Blank Screen,04/01/22 10:02:43,04/01/22 10:02:44,0.52787,1,4,,,,,,,,,
FlankerTask,1,1,1,Fixation Screen,04/01/22 10:02:44,04/01/22 10:02:44,0.418608,1,5,,,,,,,,,
FlankerTask,1,1,1,Flanker Image Shown (0.2 sec),04/01/22 10:02:44,04/01/22 10:02:45,0.424962,1,5,<<><<,Incongruent,Right,2,5,No response,,,
FlankerTask,1,1,1,Response Window (1.7 sec),04/01/22 10:02:45,04/01/22 10:02:46,1.740201,,5,<<><<,Incongruent,Right,2,5,No response,,,
FlankerTask,1,1,1,Blank Screen,04/01/22 10:02:46,04/01/22 10:02:47,0.522714,1,5,,,,,,,,,
FlankerTask,1,1,1,Fixation Screen,04/01/22 10:02:47,04/01/22 10:02:47,0.347649,1,6,,,,,,,,,
FlankerTask,1,1,1,Flanker Image Shown (0.2 sec),04/01/22 10:02:47,04/01/22 10:02:48,0.417018,1,6,>>>>>,Congruent,Right,2,4,No response,,,
FlankerTask,1,1,1,Response Window (1.7 sec),04/01/22 10:02:48,04/01/22 10:02:50,1.716959,,6,>>>>>,Congruent,Right,2,4,No response,,,
FlankerTask,1,1,1,Blank Screen,04/01/22 10:02:50,04/01/22 10:02:50,0.512571,1,6,,,,,,,,,
FlankerTask,1,1,1,Fixation Screen,04/01/22 10:02:50,04/01/22 10:02:50,0.387247,1,7,,,,,,,,,
FlankerTask,1,1,1,Flanker Image Shown (0.2 sec),04/01/22 10:02:50,04/01/22 10:02:51,0.431185,1,7,<<><<,Incongruent,Right,2,5,No response,,,
FlankerTask,1,1,1,Response Window (1.7 sec),04/01/22 10:02:51,04/01/22 10:02:53,1.735169,,7,<<><<,Incongruent,Right,2,5,No response,,,
FlankerTask,1,1,1,Blank Screen,04/01/22 10:02:53,04/01/22 10:02:53,0.525853,1,7,,,,,,,,,
FlankerTask,1,1,1,Fixation Screen,04/01/22 10:02:53,04/01/22 10:02:54,0.401039,1,8,,,,,,,,,
FlankerTask,1,1,1,Flanker Image Shown (0.2 sec),04/01/22 10:02:54,04/01/22 10:02:54,0.425034,1,8,<<><<,Incongruent,Right,2,5,No response,,,
FlankerTask,1,1,1,Response Window (1.7 sec),04/01/22 10:02:54,04/01/22 10:02:56,1.735918,,8,<<><<,Incongruent,Right,2,5,No response,,,
FlankerTask,1,1,1,Blank Screen,04/01/22 10:02:56,04/01/22 10:02:56,0.52487,1,8,,,,,,,,,
FlankerTask,1,1,1,Fixation Screen,04/01/22 10:02:56,04/01/22 10:02:57,0.522423,1,9,,,,,,,,,
FlankerTask,1,1,1,Flanker Image Shown (0.2 sec),04/01/22 10:02:57,04/01/22 10:02:57,0.422103,1,9,<<<<<,Congruent,Left,4,4,No response,,,
FlankerTask,1,1,1,Response Window (1.7 sec),04/01/22 10:02:57,04/01/22 10:02:59,1.735037,,9,<<<<<,Congruent,Left,4,4,No response,,,
FlankerTask,1,1,1,Blank Screen,04/01/22 10:02:59,04/01/22 10:02:59,0.525708,1,9,,,,,,,,,
FlankerTask,1,1,1,Fixation Screen,04/01/22 10:02:59,04/01/22 10:03:00,0.403865,1,10,,,,,,,,,
FlankerTask,1,1,1,Flanker Image Shown (0.2 sec),04/01/22 10:03:00,04/01/22 10:03:00,0.421162,1,10,>><>>,Incongruent,Left,4,5,No response,,,
FlankerTask,1,1,1,Response Window (1.7 sec),04/01/22 10:03:00,04/01/22 10:03:02,1.719713,,10,>><>>,Incongruent,Left,4,5,No response,,,
FlankerTask,1,1,1,Blank Screen,04/01/22 10:03:02,04/01/22 10:03:03,0.521209,1,10,,,,,,,,,
FlankerTask,1,1,1,Fixation Screen,04/01/22 10:03:03,04/01/22 10:03:03,0.486283,1,11,,,,,,,,,
FlankerTask,1,1,1,Flanker Image Shown (0.2 sec),04/01/22 10:03:03,04/01/22 10:03:03,0.430125,1,11,<<<<<,Congruent,Left,4,4,No response,,,
FlankerTask,1,1,1,Response Window (1.7 sec),04/01/22 10:03:03,04/01/22 10:03:05,1.735861,,11,<<<<<,Congruent,Left,4,4,No response,,,
FlankerTask,1,1,1,Blank Screen,04/01/22 10:03:05,04/01/22 10:03:06,0.525341,1,11,,,,,,,,,
FlankerTask,1,1,1,Fixation Screen,04/01/22 10:03:06,04/01/22 10:03:06,0.463937,1,12,,,,,,,,,
FlankerTask,1,1,1,Flanker Image Shown (0.2 sec),04/01/22 10:03:06,04/01/22 10:03:07,0.429542,1,12,>>>>>,Congruent,Right,2,4,No response,,,
FlankerTask,1,1,1,Response Window (1.7 sec),04/01/22 10:03:07,04/01/22 10:03:08,1.735709,,12,>>>>>,Congruent,Right,2,4,No response,,,
FlankerTask,1,1,1,Blank Screen,04/01/22 10:03:08,04/01/22 10:03:09,0.514884,1,12,,,,,,,,,
FlankerTask,1,1,1,Fixation Screen,04/01/22 10:03:09,04/01/22 10:03:09,0.616101,1,13,,,,,,,,,
FlankerTask,1,1,1,Flanker Image Shown (0.2 sec),04/01/22 10:03:09,04/01/22 10:03:10,0.412595,1,13,>><>>,Incongruent,Left,4,5,No response,,,
FlankerTask,1,1,1,Response Window (1.7 sec),04/01/22 10:03:10,04/01/22 10:03:12,1.715735,,13,>><>>,Incongruent,Left,4,5,No response,,,
FlankerTask,1,1,1,Blank Screen,04/01/22 10:03:12,04/01/22 10:03:12,0.520147,1,13,,,,,,,,,
FlankerTask,1,1,1,Fixation Screen,04/01/22 10:03:12,04/01/22 10:03:13,0.522039,1,14,,,,,,,,,
FlankerTask,1,1,1,Flanker Image Shown (0.2 sec),04/01/22 10:03:13,04/01/22 10:03:13,0.422108,1,14,<<><<,Incongruent,Right,2,5,No response,,,
FlankerTask,1,1,1,Response Window (1.7 sec),04/01/22 10:03:13,04/01/22 10:03:15,1.728688,,14,<<><<,Incongruent,Right,2,5,No response,,,
FlankerTask,1,1,1,Blank Screen,04/01/22 10:03:15,04/01/22 10:03:15,0.53265,1,14,,,,,,,,,
FlankerTask,1,1,1,Fixation Screen,04/01/22 10:03:15,04/01/22 10:03:16,0.481151,1,15,,,,,,,,,
FlankerTask,1,1,1,Flanker Image Shown (0.2 sec),04/01/22 10:03:16,04/01/22 10:03:16,0.423582,1,15,>>>>>,Congruent,Right,2,4,No response,,,
FlankerTask,1,1,1,Response Window (1.7 sec),04/01/22 10:03:16,04/01/22 10:03:18,1.717784,,15,>>>>>,Congruent,Right,2,4,No response,,,
FlankerTask,1,1,1,Blank Screen,04/01/22 10:03:18,04/01/22 10:03:18,0.505111,1,15,,,,,,,,,
FlankerTask,1,1,1,Fixation Screen,04/01/22 10:03:18,04/01/22 10:03:19,0.566847,1,16,,,,,,,,,
FlankerTask,1,1,1,Flanker Image Shown (0.2 sec),04/01/22 10:03:19,04/01/22 10:03:19,0.422206,1,16,<<<<<,Congruent,Left,4,4,No response,,,
FlankerTask,1,1,1,Response Window (1.7 sec),04/01/22 10:03:19,04/01/22 10:03:21,1.730481,,16,<<<<<,Congruent,Left,4,4,No response,,,
FlankerTask,1,1,1,Blank Screen,04/01/22 10:03:21,04/01/22 10:03:22,0.528638,1,16,,,,,,,,,
FlankerTask,1,1,1,Fixation Screen,04/01/22 10:03:22,04/01/22 10:03:22,0.423736,1,17,,,,,,,,,
FlankerTask,1,1,1,Flanker Image Shown (0.2 sec),04/01/22 10:03:22,04/01/22 10:03:23,0.419212,1,17,<<><<,Incongruent,Right,2,5,No response,,,
FlankerTask,1,1,1,Response Window (1.7 sec),04/01/22 10:03:23,04/01/22 10:03:24,1.722981,,17,<<><<,Incongruent,Right,2,5,No response,,,
FlankerTask,1,1,1,Blank Screen,04/01/22 10:03:24,04/01/22 10:03:25,0.524733,1,17,,,,,,,,,
FlankerTask,1,1,1,Fixation Screen,04/01/22 10:03:25,04/01/22 10:03:25,0.560794,1,18,,,,,,,,,
FlankerTask,1,1,1,Flanker Image Shown (0.2 sec),04/01/22 10:03:25,04/01/22 10:03:26,0.437154,1,18,>><>>,Incongruent,Left,4,5,No response,,,
FlankerTask,1,1,1,Response Window (1.7 sec),04/01/22 10:03:26,04/01/22 10:03:28,1.730657,,18,>><>>,Incongruent,Left,4,5,No response,,,
FlankerTask,1,1,1,Blank Screen,04/01/22 10:03:28,04/01/22 10:03:28,0.51413,1,18,,,,,,,,,
FlankerTask,1,1,1,Fixation Screen,04/01/22 10:03:28,04/01/22 10:03:29,0.488391,1,19,,,,,,,,,
FlankerTask,1,1,1,Flanker Image Shown (0.2 sec),04/01/22 10:03:29,04/01/22 10:03:29,0.432221,1,19,>><>>,Incongruent,Left,4,5,No response,,,
FlankerTask,1,1,1,Response Window (1.7 sec),04/01/22 10:03:29,04/01/22 10:03:31,1.735908,,19,>><>>,Incongruent,Left,4,5,No response,,,
FlankerTask,1,1,1,Blank Screen,04/01/22 10:03:31,04/01/22 10:03:31,0.520263,1,19,,,,,,,,,
FlankerTask,1,1,1,Fixation Screen,04/01/22 10:03:31,04/01/22 10:03:32,0.5685,1,20,,,,,,,,,
FlankerTask,1,1,1,Flanker Image Shown (0.2 sec),04/01/22 10:03:32,04/01/22 10:03:32,0.429562,1,20,<<><<,Incongruent,Right,2,5,No response,,,
FlankerTask,1,1,1,Response Window (1.7 sec),04/01/22 10:03:32,04/01/22 10:03:34,1.734741,,20,<<><<,Incongruent,Right,2,5,No response,,,
FlankerTask,1,1,1,Blank Screen,04/01/22 10:03:34,04/01/22 10:03:35,0.525197,1,20,,,,,,,,,
FlankerTask,1,1,1,Fixation Screen,04/01/22 10:03:35,04/01/22 10:03:35,0.404708,1,21,,,,,,,,,
FlankerTask,1,1,1,Flanker Image Shown (0.2 sec),04/01/22 10:03:35,04/01/22 10:03:35,0.422326,1,21,>><>>,Incongruent,Left,4,5,No response,,,
FlankerTask,1,1,1,Response Window (1.7 sec),04/01/22 10:03:35,04/01/22 10:03:37,1.734825,,21,>><>>,Incongruent,Left,4,5,No response,,,
FlankerTask,1,1,1,Blank Screen,04/01/22 10:03:37,04/01/22 10:03:38,0.526064,1,21,,,,,,,,,
FlankerTask,1,1,1,Fixation Screen,04/01/22 10:03:38,04/01/22 10:03:38,0.496844,1,22,,,,,,,,,
FlankerTask,1,1,1,Flanker Image Shown (0.2 sec),04/01/22 10:03:38,04/01/22 10:03:39,0.430484,1,22,>><>>,Incongruent,Left,4,5,No response,,,
FlankerTask,1,1,1,Response Window (1.7 sec),04/01/22 10:03:39,04/01/22 10:03:40,1.735871,,22,>><>>,Incongruent,Left,4,5,No response,,,
FlankerTask,1,1,1,Blank Screen,04/01/22 10:03:40,04/01/22 10:03:41,0.526007,1,22,,,,,,,,,
FlankerTask,1,1,1,Fixation Screen,04/01/22 10:03:41,04/01/22 10:03:41,0.549175,1,23,,,,,,,,,
FlankerTask,1,1,1,Flanker Image Shown (0.2 sec),04/01/22 10:03:41,04/01/22 10:03:42,0.418616,1,23,>><>>,Incongruent,Left,4,5,No response,,,
FlankerTask,1,1,1,Response Window (1.7 sec),04/01/22 10:03:42,04/01/22 10:03:44,1.729626,,23,>><>>,Incongruent,Left,4,5,No response,,,
FlankerTask,1,1,1,Blank Screen,04/01/22 10:03:44,04/01/22 10:03:44,0.521744,1,23,,,,,,,,,
FlankerTask,1,1,1,Fixation Screen,04/01/22 10:03:44,04/01/22 10:03:45,0.548468,1,24,,,,,,,,,
FlankerTask,1,1,1,Flanker Image Shown (0.2 sec),04/01/22 10:03:45,04/01/22 10:03:45,0.424248,1,24,<<<<<,Congruent,Left,4,4,No response,,,
FlankerTask,1,1,1,Response Window (1.7 sec),04/01/22 10:03:45,04/01/22 10:03:47,1.728923,,24,<<<<<,Congruent,Left,4,4,No response,,,
FlankerTask,1,1,1,Blank Screen,04/01/22 10:03:47,04/01/22 10:03:47,0.522265,1,24,,,,,,,,,
FlankerTask,1,1,1,Fixation Screen,04/01/22 10:03:47,04/01/22 10:03:48,0.405255,1,25,,,,,,,,,
FlankerTask,1,1,1,Flanker Image Shown (0.2 sec),04/01/22 10:03:48,04/01/22 10:03:48,0.422406,1,25,>><>>,Incongruent,Left,4,5,No response,,,
FlankerTask,1,1,1,Response Window (1.7 sec),04/01/22 10:03:48,04/01/22 10:03:50,1.737126,,25,>><>>,Incongruent,Left,4,5,No response,,,
FlankerTask,1,1,1,Blank Screen,04/01/22 10:03:50,04/01/22 10:03:50,0.517269,1,25,,,,,,,,,
FlankerTask,1,1,1,Fixation Screen,04/01/22 10:03:50,04/01/22 10:03:51,0.539288,1,26,,,,,,,,,
FlankerTask,1,1,1,Flanker Image Shown (0.2 sec),04/01/22 10:03:51,04/01/22 10:03:51,0.440182,1,26,>>>>>,Congruent,Right,2,4,No response,,,
FlankerTask,1,1,1,Response Window (1.7 sec),04/01/22 10:03:51,04/01/22 10:03:53,1.711039,,26,>>>>>,Congruent,Right,2,4,No response,,,
FlankerTask,1,1,1,Blank Screen,04/01/22 10:03:53,04/01/22 10:03:54,0.510674,1,26,,,,,,,,,
FlankerTask,1,1,1,Fixation Screen,04/01/22 10:03:54,04/01/22 10:03:54,0.586408,1,27,,,,,,,,,
FlankerTask,1,1,1,Flanker Image Shown (0.2 sec),04/01/22 10:03:54,04/01/22 10:03:55,0.410738,1,27,>>>>>,Congruent,Right,2,4,No response,,,
FlankerTask,1,1,1,Response Window (1.7 sec),04/01/22 10:03:55,04/01/22 10:03:56,1.738718,,27,>>>>>,Congruent,Right,2,4,No response,,,
FlankerTask,1,1,1,Blank Screen,04/01/22 10:03:56,04/01/22 10:03:57,0.58703,1,27,,,,,,,,,
FlankerTask,1,1,1,Fixation Screen,04/01/22 10:03:57,04/01/22 10:03:57,0.351601,1,28,,,,,,,,,
FlankerTask,1,1,1,Flanker Image Shown (0.2 sec),04/01/22 10:03:57,04/01/22 10:03:58,0.41416,1,28,<<<<<,Congruent,Left,4,4,No response,,,
FlankerTask,1,1,1,Response Window (1.7 sec),04/01/22 10:03:58,04/01/22 10:03:59,1.713697,,28,<<<<<,Congruent,Left,4,4,No response,,,
FlankerTask,1,1,1,Blank Screen,04/01/22 10:03:59,04/01/22 10:04:00,0.510041,1,28,,,,,,,,,
FlankerTask,1,1,1,Fixation Screen,04/01/22 10:04:00,04/01/22 10:04:01,0.602285,1,29,,,,,,,,,
FlankerTask,1,1,1,Flanker Image Shown (0.2 sec),04/01/22 10:04:01,04/01/22 10:04:01,0.420138,1,29,<<<<<,Congruent,Left,4,4,No response,,,
FlankerTask,1,1,1,Response Window (1.7 sec),04/01/22 10:04:01,04/01/22 10:04:03,1.737681,,29,<<<<<,Congruent,Left,4,4,No response,,,
FlankerTask,1,1,1,Blank Screen,04/01/22 10:04:03,04/01/22 10:04:03,0.510267,1,29,,,,,,,,,
FlankerTask,1,1,1,Fixation Screen,04/01/22 10:04:03,04/01/22 10:04:04,0.484973,1,30,,,,,,,,,
FlankerTask,1,1,1,Flanker Image Shown (0.2 sec),04/01/22 10:04:04,04/01/22 10:04:04,0.417223,1,30,<<<<<,Congruent,Left,4,4,No response,,,
FlankerTask,1,1,1,Response Window (1.7 sec),04/01/22 10:04:04,04/01/22 10:04:06,1.72992,,30,<<<<<,Congruent,Left,4,4,No response,,,
FlankerTask,1,1,1,Blank Screen,04/01/22 10:04:06,04/01/22 10:04:06,0.50955,1,30,,,,,,,,,
FlankerTask,1,1,1,Fixation Screen,04/01/22 10:04:06,04/01/22 10:04:07,0.39326,1,31,,,,,,,,,
FlankerTask,1,1,1,Flanker Image Shown (0.2 sec),04/01/22 10:04:07,04/01/22 10:04:07,0.42399,1,31,>><>>,Incongruent,Left,4,5,No response,,,
FlankerTask,1,1,1,Response Window (1.7 sec),04/01/22 10:04:07,04/01/22 10:04:09,1.738681,,31,>><>>,Incongruent,Left,4,5,No response,,,
FlankerTask,1,1,1,Blank Screen,04/01/22 10:04:09,04/01/22 10:04:09,0.53443,1,31,,,,,,,,,
FlankerTask,1,1,1,Fixation Screen,04/01/22 10:04:10,04/01/22 10:04:10,0.52689,1,32,,,,,,,,,
FlankerTask,1,1,1,Flanker Image Shown (0.2 sec),04/01/22 10:04:10,04/01/22 10:04:10,0.418752,1,32,>>>>>,Congruent,Right,2,4,No response,,,
FlankerTask,1,1,1,Response Window (1.7 sec),04/01/22 10:04:10,04/01/22 10:04:12,1.712346,,32,>>>>>,Congruent,Right,2,4,No response,,,
FlankerTask,1,1,1,Blank Screen,04/01/22 10:04:12,04/01/22 10:04:13,0.509374,1,32,,,,,,,,,
FlankerTask,1,1,1,Fixation Screen,04/01/22 10:04:13,04/01/22 10:04:13,0.53611,1,33,,,,,,,,,
FlankerTask,1,1,1,Flanker Image Shown (0.2 sec),04/01/22 10:04:13,04/01/22 10:04:14,0.409122,1,33,>>>>>,Congruent,Right,2,4,No response,,,
FlankerTask,1,1,1,Response Window (1.7 sec),04/01/22 10:04:14,04/01/22 10:04:15,1.737319,,33,>>>>>,Congruent,Right,2,4,No response,,,
FlankerTask,1,1,1,Blank Screen,04/01/22 10:04:15,04/01/22 10:04:16,0.535831,1,33,,,,,,,,,
FlankerTask,1,1,1,Fixation Screen,04/01/22 10:04:16,04/01/22 10:04:16,0.359309,1,34,,,,,,,,,
FlankerTask,1,1,1,Flanker Image Shown (0.2 sec),04/01/22 10:04:16,04/01/22 10:04:17,0.432007,1,34,>>>>>,Congruent,Right,2,4,No response,,,
FlankerTask,1,1,1,Response Window (1.7 sec),04/01/22 10:04:17,04/01/22 10:04:18,1.737787,,34,>>>>>,Congruent,Right,2,4,No response,,,
FlankerTask,1,1,1,Blank Screen,04/01/22 10:04:18,04/01/22 10:04:19,0.535248,1,34,,,,,,,,,
FlankerTask,1,1,1,Fixation Screen,04/01/22 10:04:19,04/01/22 10:04:19,0.475916,1,35,,,,,,,,,
FlankerTask,1,1,1,Flanker Image Shown (0.2 sec),04/01/22 10:04:19,04/01/22 10:04:20,0.417628,1,35,<<<<<,Congruent,Left,4,4,No response,,,
FlankerTask,1,1,1,Response Window (1.7 sec),04/01/22 10:04:20,04/01/22 10:04:22,1.712271,,35,<<<<<,Congruent,Left,4,4,No response,,,
FlankerTask,1,1,1,Blank Screen,04/01/22 10:04:22,04/01/22 10:04:22,0.517748,1,35,,,,,,,,,
FlankerTask,1,1,1,Waiting for scanner,04/01/22 10:04:22,04/01/22 10:09:30,307.851401,2,,,,,,,,,,
FlankerTask,1,1,1,Get Ready Screen,04/01/22 10:09:30,04/01/22 10:09:38,8.07703,2,,,,,,,,,,
FlankerTask,1,1,1,Fixation Screen,04/01/22 10:09:38,04/01/22 10:09:39,0.633601,2,0,,,,,,,,,
FlankerTask,1,1,1,Flanker Image Shown (0.2 sec),04/01/22 10:09:39,04/01/22 10:09:39,0.419728,2,0,<<><<,Incongruent,Right,2,5,No response,,,
FlankerTask,1,1,1,Response Window (1.7 sec),04/01/22 10:09:39,04/01/22 10:09:41,1.721387,,0,<<><<,Incongruent,Right,2,5,No response,,,
FlankerTask,1,1,1,Blank Screen,04/01/22 10:09:41,04/01/22 10:09:41,0.539081,2,0,,,,,,,,,
FlankerTask,1,1,1,Fixation Screen,04/01/22 10:09:41,04/01/22 10:09:42,0.463702,2,1,,,,,,,,,
FlankerTask,1,1,1,Flanker Image Shown (0.2 sec),04/01/22 10:09:42,04/01/22 10:09:42,0.414414,2,1,<<><<,Incongruent,Right,2,5,No response,,,
FlankerTask,1,1,1,Response Window (1.7 sec),04/01/22 10:09:42,04/01/22 10:09:44,1.721089,,1,<<><<,Incongruent,Right,2,5,No response,,,
FlankerTask,1,1,1,Blank Screen,04/01/22 10:09:44,04/01/22 10:09:45,0.539923,2,1,,,,,,,,,
FlankerTask,1,1,1,Fixation Screen,04/01/22 10:09:45,04/01/22 10:09:45,0.513823,2,2,,,,,,,,,
FlankerTask,1,1,1,Flanker Image Shown (0.2 sec),04/01/22 10:09:45,04/01/22 10:09:45,0.413539,2,2,>>>>>,Congruent,Right,2,4,No response,,,
FlankerTask,1,1,1,Response Window (1.7 sec),04/01/22 10:09:45,04/01/22 10:09:47,1.721429,,2,>>>>>,Congruent,Right,2,4,No response,,,
FlankerTask,1,1,1,Blank Screen,04/01/22 10:09:47,04/01/22 10:09:48,0.538631,2,2,,,,,,,,,
FlankerTask,1,1,1,Fixation Screen,04/01/22 10:09:48,04/01/22 10:09:48,0.480548,2,3,,,,,,,,,
FlankerTask,1,1,1,Flanker Image Shown (0.2 sec),04/01/22 10:09:48,04/01/22 10:09:49,0.422433,2,3,>><>>,Incongruent,Left,4,5,No response,,,
FlankerTask,1,1,1,Response Window (1.7 sec),04/01/22 10:09:49,04/01/22 10:09:50,1.745405,,3,>><>>,Incongruent,Left,4,5,No response,,,
FlankerTask,1,1,1,Blank Screen,04/01/22 10:09:50,04/01/22 10:09:51,0.540233,2,3,,,,,,,,,
FlankerTask,1,1,1,Fixation Screen,04/01/22 10:09:51,04/01/22 10:09:52,0.58126,2,4,,,,,,,,,
FlankerTask,1,1,1,Flanker Image Shown (0.2 sec),04/01/22 10:09:52,04/01/22 10:09:52,0.420657,2,4,>><>>,Incongruent,Left,4,5,No response,,,
FlankerTask,1,1,1,Response Window (1.7 sec),04/01/22 10:09:52,04/01/22 10:09:54,1.745969,,4,>><>>,Incongruent,Left,4,5,No response,,,
FlankerTask,1,1,1,Blank Screen,04/01/22 10:09:54,04/01/22 10:09:54,0.538784,2,4,,,,,,,,,
FlankerTask,1,1,1,Fixation Screen,04/01/22 10:09:54,04/01/22 10:09:55,0.531224,2,5,,,,,,,,,
FlankerTask,1,1,1,Flanker Image Shown (0.2 sec),04/01/22 10:09:55,04/01/22 10:09:55,0.421847,2,5,>><>>,Incongruent,Left,4,5,No response,,,
FlankerTask,1,1,1,Response Window (1.7 sec),04/01/22 10:09:55,04/01/22 10:09:57,1.746442,,5,>><>>,Incongruent,Left,4,5,No response,,,
FlankerTask,1,1,1,Blank Screen,04/01/22 10:09:57,04/01/22 10:09:57,0.539797,2,5,,,,,,,,,
FlankerTask,1,1,1,Fixation Screen,04/01/22 10:09:57,04/01/22 10:09:58,0.480292,2,6,,,,,,,,,
FlankerTask,1,1,1,Flanker Image Shown (0.2 sec),04/01/22 10:09:58,04/01/22 10:09:58,0.419596,2,6,<<<<<,Congruent,Left,4,4,No response,,,
FlankerTask,1,1,1,Response Window (1.7 sec),04/01/22 10:09:58,04/01/22 10:10:00,1.745771,,6,<<<<<,Congruent,Left,4,4,No response,,,
FlankerTask,1,1,1,Blank Screen,04/01/22 10:10:00,04/01/22 10:10:01,0.539961,2,6,,,,,,,,,
FlankerTask,1,1,1,Fixation Screen,04/01/22 10:10:01,04/01/22 10:10:01,0.447495,2,7,,,,,,,,,
FlankerTask,1,1,1,Flanker Image Shown (0.2 sec),04/01/22 10:10:01,04/01/22 10:10:02,0.431639,2,7,<<><<,Incongruent,Right,2,5,No response,,,
FlankerTask,1,1,1,Response Window (1.7 sec),04/01/22 10:10:02,04/01/22 10:10:03,1.722364,,7,<<><<,Incongruent,Right,2,5,No response,,,
FlankerTask,1,1,1,Blank Screen,04/01/22 10:10:03,04/01/22 10:10:04,0.586695,2,7,,,,,,,,,
FlankerTask,1,1,1,Fixation Screen,04/01/22 10:10:04,04/01/22 10:10:04,0.556032,2,8,,,,,,,,,
FlankerTask,1,1,1,Flanker Image Shown (0.2 sec),04/01/22 10:10:04,04/01/22 10:10:05,0.421271,2,8,<<<<<,Congruent,Left,4,4,No response,,,
FlankerTask,1,1,1,Response Window (1.7 sec),04/01/22 10:10:05,04/01/22 10:10:07,1.714039,,8,<<<<<,Congruent,Left,4,4,No response,,,
FlankerTask,1,1,1,Blank Screen,04/01/22 10:10:07,04/01/22 10:10:07,0.534428,2,8,,,,,,,,,
FlankerTask,1,1,1,Fixation Screen,04/01/22 10:10:07,04/01/22 10:10:08,0.3914,2,9,,,,,,,,,
FlankerTask,1,1,1,Flanker Image Shown (0.2 sec),04/01/22 10:10:08,04/01/22 10:10:08,0.417798,2,9,>><>>,Incongruent,Left,4,5,No response,,,
FlankerTask,1,1,1,Response Window (1.7 sec),04/01/22 10:10:08,04/01/22 10:10:10,1.713552,,9,>><>>,Incongruent,Left,4,5,No response,,,
FlankerTask,1,1,1,Blank Screen,04/01/22 10:10:10,04/01/22 10:10:10,0.530452,2,9,,,,,,,,,
FlankerTask,1,1,1,Fixation Screen,04/01/22 10:10:10,04/01/22 10:10:11,0.395998,2,10,,,,,,,,,
FlankerTask,1,1,1,Flanker Image Shown (0.2 sec),04/01/22 10:10:11,04/01/22 10:10:11,0.417891,2,10,>>>>>,Congruent,Right,2,4,No response,,,
FlankerTask,1,1,1,Response Window (1.7 sec),04/01/22 10:10:11,04/01/22 10:10:13,1.740804,,10,>>>>>,Congruent,Right,2,4,No response,,,
FlankerTask,1,1,1,Blank Screen,04/01/22 10:10:13,04/01/22 10:10:13,0.520313,2,10,,,,,,,,,
FlankerTask,1,1,1,Fixation Screen,04/01/22 10:10:13,04/01/22 10:10:14,0.563357,2,11,,,,,,,,,
FlankerTask,1,1,1,Flanker Image Shown (0.2 sec),04/01/22 10:10:14,04/01/22 10:10:14,0.422872,2,11,>>>>>,Congruent,Right,2,4,No response,,,
FlankerTask,1,1,1,Response Window (1.7 sec),04/01/22 10:10:14,04/01/22 10:10:16,1.721362,,11,>>>>>,Congruent,Right,2,4,No response,,,
FlankerTask,1,1,1,Blank Screen,04/01/22 10:10:16,04/01/22 10:10:17,0.539451,2,11,,,,,,,,,
FlankerTask,1,1,1,Fixation Screen,04/01/22 10:10:17,04/01/22 10:10:17,0.50531,2,12,,,,,,,,,
FlankerTask,1,1,1,Flanker Image Shown (0.2 sec),04/01/22 10:10:17,04/01/22 10:10:17,0.420541,2,12,>>>>>,Congruent,Right,2,4,No response,,,
FlankerTask,1,1,1,Response Window (1.7 sec),04/01/22 10:10:17,04/01/22 10:10:19,1.721114,,12,>>>>>,Congruent,Right,2,4,No response,,,
FlankerTask,1,1,1,Blank Screen,04/01/22 10:10:19,04/01/22 10:10:20,0.539719,2,12,,,,,,,,,
FlankerTask,1,1,1,Fixation Screen,04/01/22 10:10:20,04/01/22 10:10:20,0.397351,2,13,,,,,,,,,
FlankerTask,1,1,1,Flanker Image Shown (0.2 sec),04/01/22 10:10:20,04/01/22 10:10:21,0.432045,2,13,>>>>>,Congruent,Right,2,4,No response,,,
FlankerTask,1,1,1,Response Window (1.7 sec),04/01/22 10:10:21,04/01/22 10:10:22,1.720355,,13,>>>>>,Congruent,Right,2,4,No response,,,
FlankerTask,1,1,1,Blank Screen,04/01/22 10:10:22,04/01/22 10:10:23,0.539148,2,13,,,,,,,,,
FlankerTask,1,1,1,Fixation Screen,04/01/22 10:10:23,04/01/22 10:10:23,0.46726,2,14,,,,,,,,,
FlankerTask,1,1,1,Flanker Image Shown (0.2 sec),04/01/22 10:10:23,04/01/22 10:10:24,0.431976,2,14,<<<<<,Congruent,Left,4,4,No response,,,
FlankerTask,1,1,1,Response Window (1.7 sec),04/01/22 10:10:24,04/01/22 10:10:25,1.725576,,14,<<<<<,Congruent,Left,4,4,No response,,,
FlankerTask,1,1,1,Blank Screen,04/01/22 10:10:25,04/01/22 10:10:26,0.512643,2,14,,,,,,,,,
FlankerTask,1,1,1,Fixation Screen,04/01/22 10:10:26,04/01/22 10:10:26,0.412132,2,15,,,,,,,,,
FlankerTask,1,1,1,Flanker Image Shown (0.2 sec),04/01/22 10:10:26,04/01/22 10:10:27,0.417433,2,15,<<<<<,Congruent,Left,4,4,No response,,,
FlankerTask,1,1,1,Response Window (1.7 sec),04/01/22 10:10:27,04/01/22 10:10:29,1.721561,,15,<<<<<,Congruent,Left,4,4,No response,,,
FlankerTask,1,1,1,Blank Screen,04/01/22 10:10:29,04/01/22 10:10:29,0.517827,2,15,,,,,,,,,
FlankerTask,1,1,1,Fixation Screen,04/01/22 10:10:29,04/01/22 10:10:30,0.48357,2,16,,,,,,,,,
FlankerTask,1,1,1,Flanker Image Shown (0.2 sec),04/01/22 10:10:30,04/01/22 10:10:30,0.417758,2,16,<<<<<,Congruent,Left,4,4,No response,,,
FlankerTask,1,1,1,Response Window (1.7 sec),04/01/22 10:10:30,04/01/22 10:10:32,1.714639,,16,<<<<<,Congruent,Left,4,4,No response,,,
FlankerTask,1,1,1,Blank Screen,04/01/22 10:10:32,04/01/22 10:10:32,0.522615,2,16,,,,,,,,,
FlankerTask,1,1,1,Fixation Screen,04/01/22 10:10:32,04/01/22 10:10:33,0.383308,2,17,,,,,,,,,
FlankerTask,1,1,1,Flanker Image Shown (0.2 sec),04/01/22 10:10:33,04/01/22 10:10:33,0.416241,2,17,>>>>>,Congruent,Right,2,4,No response,,,
FlankerTask,1,1,1,Response Window (1.7 sec),04/01/22 10:10:33,04/01/22 10:10:35,1.721502,,17,>>>>>,Congruent,Right,2,4,No response,,,
FlankerTask,1,1,1,Blank Screen,04/01/22 10:10:35,04/01/22 10:10:35,0.524289,2,17,,,,,,,,,
FlankerTask,1,1,1,Fixation Screen,04/01/22 10:10:35,04/01/22 10:10:36,0.405827,2,18,,,,,,,,,
FlankerTask,1,1,1,Flanker Image Shown (0.2 sec),04/01/22 10:10:36,04/01/22 10:10:36,0.422075,2,18,>>>>>,Congruent,Right,2,4,No response,,,
FlankerTask,1,1,1,Response Window (1.7 sec),04/01/22 10:10:36,04/01/22 10:10:38,1.716208,,18,>>>>>,Congruent,Right,2,4,No response,,,
FlankerTask,1,1,1,Blank Screen,04/01/22 10:10:38,04/01/22 10:10:38,0.529482,2,18,,,,,,,,,
FlankerTask,1,1,1,Fixation Screen,04/01/22 10:10:38,04/01/22 10:10:39,0.582438,2,19,,,,,,,,,
FlankerTask,1,1,1,Flanker Image Shown (0.2 sec),04/01/22 10:10:39,04/01/22 10:10:39,0.428191,2,19,>>>>>,Congruent,Right,2,4,No response,,,
FlankerTask,1,1,1,Response Window (1.7 sec),04/01/22 10:10:39,04/01/22 10:10:41,1.720043,,19,>>>>>,Congruent,Right,2,4,No response,,,
FlankerTask,1,1,1,Blank Screen,04/01/22 10:10:41,04/01/22 10:10:42,0.520842,2,19,,,,,,,,,
FlankerTask,1,1,1,Fixation Screen,04/01/22 10:10:42,04/01/22 10:10:42,0.509894,2,20,,,,,,,,,
FlankerTask,1,1,1,Flanker Image Shown (0.2 sec),04/01/22 10:10:42,04/01/22 10:10:43,0.411626,2,20,<<<<<,Congruent,Left,4,4,No response,,,
FlankerTask,1,1,1,Response Window (1.7 sec),04/01/22 10:10:43,04/01/22 10:10:44,1.722822,,20,<<<<<,Congruent,Left,4,4,No response,,,
FlankerTask,1,1,1,Blank Screen,04/01/22 10:10:44,04/01/22 10:10:45,0.504666,2,20,,,,,,,,,
FlankerTask,1,1,1,Fixation Screen,04/01/22 10:10:45,04/01/22 10:10:45,0.488222,2,21,,,,,,,,,
FlankerTask,1,1,1,Flanker Image Shown (0.2 sec),04/01/22 10:10:45,04/01/22 10:10:46,0.409211,2,21,<<<<<,Congruent,Left,4,4,No response,,,
FlankerTask,1,1,1,Response Window (1.7 sec),04/01/22 10:10:46,04/01/22 10:10:47,1.722776,,21,<<<<<,Congruent,Left,4,4,No response,,,
FlankerTask,1,1,1,Blank Screen,04/01/22 10:10:47,04/01/22 10:10:48,0.527062,2,21,,,,,,,,,
FlankerTask,1,1,1,Fixation Screen,04/01/22 10:10:48,04/01/22 10:10:49,0.579943,2,22,,,,,,,,,
FlankerTask,1,1,1,Flanker Image Shown (0.2 sec),04/01/22 10:10:49,04/01/22 10:10:49,0.428589,2,22,>><>>,Incongruent,Left,4,5,No response,,,
FlankerTask,1,1,1,Response Window (1.7 sec),04/01/22 10:10:49,04/01/22 10:10:51,1.735321,,22,>><>>,Incongruent,Left,4,5,No response,,,
FlankerTask,1,1,1,Blank Screen,04/01/22 10:10:51,04/01/22 10:10:51,0.518237,2,22,,,,,,,,,
FlankerTask,1,1,1,Fixation Screen,04/01/22 10:10:51,04/01/22 10:10:52,0.4042,2,23,,,,,,,,,
FlankerTask,1,1,1,Flanker Image Shown (0.2 sec),04/01/22 10:10:52,04/01/22 10:10:52,0.424874,2,23,<<><<,Incongruent,Right,2,5,No response,,,
FlankerTask,1,1,1,Response Window (1.7 sec),04/01/22 10:10:52,04/01/22 10:10:54,1.717961,,23,<<><<,Incongruent,Right,2,5,No response,,,
FlankerTask,1,1,1,Blank Screen,04/01/22 10:10:54,04/01/22 10:10:54,0.515869,2,23,,,,,,,,,
FlankerTask,1,1,1,Fixation Screen,04/01/22 10:10:54,04/01/22 10:10:55,0.554154,2,24,,,,,,,,,
FlankerTask,1,1,1,Flanker Image Shown (0.2 sec),04/01/22 10:10:55,04/01/22 10:10:55,0.421608,2,24,<<><<,Incongruent,Right,2,5,No response,,,
FlankerTask,1,1,1,Response Window (1.7 sec),04/01/22 10:10:55,04/01/22 10:10:57,1.719888,,24,<<><<,Incongruent,Right,2,5,No response,,,
FlankerTask,1,1,1,Blank Screen,04/01/22 10:10:57,04/01/22 10:10:58,0.525241,2,24,,,,,,,,,
FlankerTask,1,1,1,Fixation Screen,04/01/22 10:10:58,04/01/22 10:10:58,0.56194,2,25,,,,,,,,,
FlankerTask,1,1,1,Flanker Image Shown (0.2 sec),04/01/22 10:10:58,04/01/22 10:10:59,0.417079,2,25,>><>>,Incongruent,Left,4,5,No response,,,
FlankerTask,1,1,1,Response Window (1.7 sec),04/01/22 10:10:59,04/01/22 10:11:00,1.704419,,25,>><>>,Incongruent,Left,4,5,No response,,,
FlankerTask,1,1,1,Blank Screen,04/01/22 10:11:00,04/01/22 10:11:01,0.523111,2,25,,,,,,,,,
FlankerTask,1,1,1,Fixation Screen,04/01/22 10:11:01,04/01/22 10:11:01,0.370245,2,26,,,,,,,,,
FlankerTask,1,1,1,Flanker Image Shown (0.2 sec),04/01/22 10:11:01,04/01/22 10:11:02,0.418101,2,26,<<<<<,Congruent,Left,4,4,No response,,,
FlankerTask,1,1,1,Response Window (1.7 sec),04/01/22 10:11:02,04/01/22 10:11:03,1.712942,,26,<<<<<,Congruent,Left,4,4,No response,,,
FlankerTask,1,1,1,Blank Screen,04/01/22 10:11:03,04/01/22 10:11:04,0.51509,2,26,,,,,,,,,
FlankerTask,1,1,1,Fixation Screen,04/01/22 10:11:04,04/01/22 10:11:04,0.385081,2,27,,,,,,,,,
FlankerTask,1,1,1,Flanker Image Shown (0.2 sec),04/01/22 10:11:04,04/01/22 10:11:05,0.422159,2,27,>><>>,Incongruent,Left,4,5,No response,,,
FlankerTask,1,1,1,Response Window (1.7 sec),04/01/22 10:11:05,04/01/22 10:11:06,1.727869,,27,>><>>,Incongruent,Left,4,5,No response,,,
FlankerTask,1,1,1,Blank Screen,04/01/22 10:11:06,04/01/22 10:11:07,0.522118,2,27,,,,,,,,,
FlankerTask,1,1,1,Fixation Screen,04/01/22 10:11:07,04/01/22 10:11:07,0.332886,2,28,,,,,,,,,
FlankerTask,1,1,1,Flanker Image Shown (0.2 sec),04/01/22 10:11:07,04/01/22 10:11:08,0.429114,2,28,<<<<<,Congruent,Left,4,4,No response,,,
FlankerTask,1,1,1,Response Window (1.7 sec),04/01/22 10:11:08,04/01/22 10:11:09,1.719788,,28,<<<<<,Congruent,Left,4,4,No response,,,
FlankerTask,1,1,1,Blank Screen,04/01/22 10:11:09,04/01/22 10:11:10,0.524456,2,28,,,,,,,,,
FlankerTask,1,1,1,Fixation Screen,04/01/22 10:11:10,04/01/22 10:11:10,0.587028,2,29,,,,,,,,,
FlankerTask,1,1,1,Flanker Image Shown (0.2 sec),04/01/22 10:11:10,04/01/22 10:11:11,0.42357,2,29,<<><<,Incongruent,Right,2,5,No response,,,
FlankerTask,1,1,1,Response Window (1.7 sec),04/01/22 10:11:11,04/01/22 10:11:13,1.716848,,29,<<><<,Incongruent,Right,2,5,No response,,,
FlankerTask,1,1,1,Blank Screen,04/01/22 10:11:13,04/01/22 10:11:13,0.526715,2,29,,,,,,,,,
FlankerTask,1,1,1,Fixation Screen,04/01/22 10:11:13,04/01/22 10:11:13,0.32292,2,30,,,,,,,,,
FlankerTask,1,1,1,Flanker Image Shown (0.2 sec),04/01/22 10:11:13,04/01/22 10:11:14,0.424051,2,30,>><>>,Incongruent,Left,4,5,No response,,,
FlankerTask,1,1,1,Response Window (1.7 sec),04/01/22 10:11:14,04/01/22 10:11:16,1.732707,,30,>><>>,Incongruent,Left,4,5,No response,,,
FlankerTask,1,1,1,Blank Screen,04/01/22 10:11:16,04/01/22 10:11:16,0.524793,2,30,,,,,,,,,
FlankerTask,1,1,1,Fixation Screen,04/01/22 10:11:16,04/01/22 10:11:16,0.339283,2,31,,,,,,,,,
FlankerTask,1,1,1,Flanker Image Shown (0.2 sec),04/01/22 10:11:16,04/01/22 10:11:17,0.4229,2,31,<<><<,Incongruent,Right,2,5,No response,,,
FlankerTask,1,1,1,Response Window (1.7 sec),04/01/22 10:11:17,04/01/22 10:11:19,1.71825,,31,<<><<,Incongruent,Right,2,5,No response,,,
FlankerTask,1,1,1,Blank Screen,04/01/22 10:11:19,04/01/22 10:11:19,0.520902,2,31,,,,,,,,,
FlankerTask,1,1,1,Fixation Screen,04/01/22 10:11:19,04/01/22 10:11:20,0.401166,2,32,,,,,,,,,
FlankerTask,1,1,1,Flanker Image Shown (0.2 sec),04/01/22 10:11:20,04/01/22 10:11:20,0.427216,2,32,<<><<,Incongruent,Right,2,5,No response,,,
FlankerTask,1,1,1,Response Window (1.7 sec),04/01/22 10:11:20,04/01/22 10:11:22,1.715834,,32,<<><<,Incongruent,Right,2,5,No response,,,
FlankerTask,1,1,1,Blank Screen,04/01/22 10:11:22,04/01/22 10:11:22,0.512906,2,32,,,,,,,,,
FlankerTask,1,1,1,Fixation Screen,04/01/22 10:11:22,04/01/22 10:11:23,0.422615,2,33,,,,,,,,,
FlankerTask,1,1,1,Flanker Image Shown (0.2 sec),04/01/22 10:11:23,04/01/22 10:11:23,0.421626,2,33,<<><<,Incongruent,Right,2,5,No response,,,
FlankerTask,1,1,1,Response Window (1.7 sec),04/01/22 10:11:23,04/01/22 10:11:25,1.711179,,33,<<><<,Incongruent,Right,2,5,No response,,,
FlankerTask,1,1,1,Blank Screen,04/01/22 10:11:25,04/01/22 10:11:25,0.511452,2,33,,,,,,,,,
FlankerTask,1,1,1,Fixation Screen,04/01/22 10:11:25,04/01/22 10:11:26,0.393439,2,34,,,,,,,,,
FlankerTask,1,1,1,Flanker Image Shown (0.2 sec),04/01/22 10:11:26,04/01/22 10:11:26,0.489566,2,34,>><>>,Incongruent,Left,4,5,No response,,,
FlankerTask,1,1,1,Response Window (1.7 sec),04/01/22 10:11:26,04/01/22 10:11:28,1.717865,,34,>><>>,Incongruent,Left,4,5,No response,,,
FlankerTask,1,1,1,Blank Screen,04/01/22 10:11:28,04/01/22 10:11:28,0.524736,2,34,,,,,,,,,
FlankerTask,1,1,1,Fixation Screen,04/01/22 10:11:28,04/01/22 10:11:29,0.531791,2,35,,,,,,,,,
FlankerTask,1,1,1,Flanker Image Shown (0.2 sec),04/01/22 10:11:29,04/01/22 10:11:29,0.422645,2,35,>>>>>,Congruent,Right,2,4,No response,,,
FlankerTask,1,1,1,Response Window (1.7 sec),04/01/22 10:11:29,04/01/22 10:11:31,1.725814,,35,>>>>>,Congruent,Right,2,4,No response,,,
FlankerTask,1,1,1,Blank Screen,04/01/22 10:11:31,04/01/22 10:11:32,0.518954,2,35,,,,,,,,,
